Task,subject,trial,Split Half,Split OddEven,stimfile,condition,code,previous trial,current trial,correct_response_side,response_repetition,stimulus_TYPE_repetition,resp_1,resp_2,response,distractor,error,post-error,RT
Flanker,1,2,B1,Even,incongruent_right.jpg,2,incongruent_right,,incongruent,,,,~left_response_box.jpg,~right_response_box.jpg,2,1,0,0,2452
Flanker,1,3,B1,Odd,congruent_right.jpg,1,congruent_right,incongruent,congruent,right,switch,switch,~left_response_box.jpg,~right_response_box.jpg,2,1,0,0,1438
Flanker,1,4,B1,Even,congruent_left.jpg,1,congruent_left,congruent,congruent,left,switch,repeat,~left_response_box.jpg,~right_response_box.jpg,1,2,0,0,1000
Flanker,1,5,B1,Odd,incongruent_left.jpg,2,incongruent_left,congruent,incongruent,left,repeat,switch,~left_response_box.jpg,~right_response_box.jpg,1,2,0,0,2218
Flanker,1,6,B1,Even,congruent_right.jpg,1,congruent_right,incongruent,congruent,right,switch,switch,~left_response_box.jpg,~right_response_box.jpg,2,1,0,0,1140
Flanker,1,7,B1,Odd,congruent_left.jpg,1,congruent_left,congruent,congruent,left,switch,repeat,~left_response_box.jpg,~right_response_box.jpg,1,2,0,0,953
Flanker,1,8,B1,Even,congruent_left.jpg,1,congruent_left,congruent,congruent,left,repeat,repeat,~left_response_box.jpg,~right_response_box.jpg,1,2,0,0,1296
Flanker,1,9,B1,Odd,congruent_right.jpg,1,congruent_right,congruent,congruent,right,switch,repeat,~left_response_box.jpg,~right_response_box.jpg,2,1,0,0,1031
Flanker,1,10,B1,Even,incongruent_left.jpg,2,incongruent_left,congruent,incongruent,left,switch,switch,~left_response_box.jpg,~right_response_box.jpg,1,2,0,0,1406
Flanker,1,11,B1,Odd,congruent_right.jpg,1,congruent_right,incongruent,congruent,right,switch,switch,~left_response_box.jpg,~right_response_box.jpg,2,1,0,0,1109
Flanker,1,12,B1,Even,incongruent_left.jpg,2,incongruent_left,congruent,incongruent,left,switch,switch,~left_response_box.jpg,~right_response_box.jpg,1,2,0,0,1218
Flanker,1,13,B1,Odd,incongruent_right.jpg,2,incongruent_right,incongruent,incongruent,right,switch,repeat,~left_response_box.jpg,~right_response_box.jpg,2,1,0,0,1016
Flanker,1,14,B1,Even,congruent_left.jpg,1,congruent_left,incongruent,congruent,left,switch,switch,~left_response_box.jpg,~right_response_box.jpg,1,2,0,0,1203
Flanker,1,15,B1,Odd,congruent_left.jpg,1,congruent_left,congruent,congruent,left,repeat,repeat,~left_response_box.jpg,~right_response_box.jpg,1,2,0,0,796
Flanker,1,16,B1,Even,incongruent_left.jpg,2,incongruent_left,congruent,incongruent,left,repeat,switch,~left_response_box.jpg,~right_response_box.jpg,1,2,0,0,999
Flanker,1,17,B1,Odd,incongruent_left.jpg,2,incongruent_left,incongruent,incongruent,left,repeat,repeat,~left_response_box.jpg,~right_response_box.jpg,1,2,0,0,1328
Flanker,1,18,B1,Even,congruent_left.jpg,1,congruent_left,incongruent,congruent,left,repeat,switch,~left_response_box.jpg,~right_response_box.jpg,1,2,0,0,1062
Flanker,1,19,B1,Odd,incongruent_left.jpg,2,incongruent_left,congruent,incongruent,left,repeat,switch,~left_response_box.jpg,~right_response_box.jpg,1,2,0,0,1375
Flanker,1,20,B1,Even,incongruent_right.jpg,2,incongruent_right,incongruent,incongruent,right,switch,repeat,~left_response_box.jpg,~right_response_box.jpg,2,1,0,0,875
Flanker,1,21,B1,Odd,congruent_right.jpg,1,congruent_right,incongruent,congruent,right,repeat,switch,~left_response_box.jpg,~right_response_box.jpg,2,1,0,0,937
Flanker,1,22,B1,Even,incongruent_left.jpg,2,incongruent_left,congruent,incongruent,left,switch,switch,~left_response_box.jpg,~right_response_box.jpg,1,2,0,0,937
Flanker,1,23,B1,Odd,congruent_left.jpg,1,congruent_left,incongruent,congruent,left,repeat,switch,~left_response_box.jpg,~right_response_box.jpg,1,2,0,0,843
Flanker,1,24,B1,Even,congruent_right.jpg,1,congruent_right,congruent,congruent,right,switch,repeat,~left_response_box.jpg,~right_response_box.jpg,2,1,0,0,938
Flanker,1,25,B1,Odd,congruent_left.jpg,1,congruent_left,congruent,congruent,left,switch,repeat,~left_response_box.jpg,~right_response_box.jpg,1,2,0,0,1093
Flanker,1,27,B1,Odd,congruent_left.jpg,1,congruent_left,congruent,congruent,left,repeat,repeat,~left_response_box.jpg,~right_response_box.jpg,1,2,0,0,1000
Flanker,1,28,B1,Even,incongruent_left.jpg,2,incongruent_left,congruent,incongruent,left,repeat,switch,~left_response_box.jpg,~right_response_box.jpg,1,2,0,0,1077
Flanker,1,29,B1,Odd,incongruent_left.jpg,2,incongruent_left,incongruent,incongruent,left,repeat,repeat,~left_response_box.jpg,~right_response_box.jpg,1,2,0,0,890
Flanker,1,30,B1,Even,congruent_left.jpg,1,congruent_left,incongruent,congruent,left,repeat,switch,~left_response_box.jpg,~right_response_box.jpg,1,2,0,0,1046
Flanker,1,31,B1,Odd,incongruent_right.jpg,2,incongruent_right,congruent,incongruent,right,switch,switch,~left_response_box.jpg,~right_response_box.jpg,2,1,0,0,1187
Flanker,1,32,B1,Even,congruent_right.jpg,1,congruent_right,incongruent,congruent,right,repeat,switch,~left_response_box.jpg,~right_response_box.jpg,2,1,0,0,828
Flanker,1,33,B1,Odd,incongruent_right.jpg,2,incongruent_right,congruent,incongruent,right,repeat,switch,~left_response_box.jpg,~right_response_box.jpg,2,1,0,0,812
Flanker,1,34,B1,Even,incongruent_right.jpg,2,incongruent_right,incongruent,incongruent,right,repeat,repeat,~left_response_box.jpg,~right_response_box.jpg,2,1,0,0,952
Flanker,1,35,B1,Odd,congruent_right.jpg,1,congruent_right,incongruent,congruent,right,repeat,switch,~left_response_box.jpg,~right_response_box.jpg,2,1,0,0,843
Flanker,1,36,B1,Even,incongruent_right.jpg,2,incongruent_right,congruent,incongruent,right,repeat,switch,~left_response_box.jpg,~right_response_box.jpg,2,1,0,0,1406
Flanker,1,37,B1,Odd,incongruent_right.jpg,2,incongruent_right,incongruent,incongruent,right,repeat,repeat,~left_response_box.jpg,~right_response_box.jpg,2,1,0,0,921
Flanker,1,38,B1,Even,incongruent_left.jpg,2,incongruent_left,incongruent,incongruent,left,switch,repeat,~left_response_box.jpg,~right_response_box.jpg,1,2,0,0,953
Flanker,1,39,B1,Odd,incongruent_left.jpg,2,incongruent_left,incongruent,incongruent,left,repeat,repeat,~left_response_box.jpg,~right_response_box.jpg,1,2,0,0,1000
Flanker,1,40,B1,Even,incongruent_left.jpg,2,incongruent_left,incongruent,incongruent,left,repeat,repeat,~left_response_box.jpg,~right_response_box.jpg,1,2,0,0,1281
Flanker,1,41,B1,Odd,incongruent_left.jpg,2,incongruent_left,incongruent,incongruent,left,repeat,repeat,~left_response_box.jpg,~right_response_box.jpg,1,2,0,0,937
Flanker,1,42,B1,Even,congruent_right.jpg,1,congruent_right,incongruent,congruent,right,switch,switch,~left_response_box.jpg,~right_response_box.jpg,2,1,0,0,906
Flanker,1,43,B1,Odd,incongruent_left.jpg,2,incongruent_left,congruent,incongruent,left,switch,switch,~left_response_box.jpg,~right_response_box.jpg,1,2,0,0,922
Flanker,1,44,B1,Even,congruent_left.jpg,1,congruent_left,incongruent,congruent,left,repeat,switch,~left_response_box.jpg,~right_response_box.jpg,1,2,0,0,797
Flanker,1,45,B1,Odd,incongruent_right.jpg,2,incongruent_right,congruent,incongruent,right,switch,switch,~left_response_box.jpg,~right_response_box.jpg,2,1,0,0,1047
Flanker,1,46,B1,Even,incongruent_right.jpg,2,incongruent_right,incongruent,incongruent,right,repeat,repeat,~left_response_box.jpg,~right_response_box.jpg,2,1,0,0,1328
Flanker,1,47,B1,Odd,congruent_right.jpg,1,congruent_right,incongruent,congruent,right,repeat,switch,~left_response_box.jpg,~right_response_box.jpg,2,1,0,0,844
Flanker,1,48,B1,Even,incongruent_right.jpg,2,incongruent_right,congruent,incongruent,right,repeat,switch,~left_response_box.jpg,~right_response_box.jpg,2,1,0,0,875
Flanker,1,49,B1,Odd,congruent_left.jpg,1,congruent_left,incongruent,congruent,left,switch,switch,~left_response_box.jpg,~right_response_box.jpg,1,2,0,0,765
Flanker,1,50,B1,Even,congruent_left.jpg,1,congruent_left,congruent,congruent,left,repeat,repeat,~left_response_box.jpg,~right_response_box.jpg,1,2,0,0,1078
Flanker,1,52,B2,Even,congruent_right.jpg,1,congruent_right,congruent,congruent,right,switch,repeat,~left_response_box.jpg,~right_response_box.jpg,2,1,0,0,922
Flanker,1,53,B2,Odd,congruent_right.jpg,1,congruent_right,congruent,congruent,right,repeat,repeat,~left_response_box.jpg,~right_response_box.jpg,2,1,0,0,797
Flanker,1,54,B2,Even,incongruent_right.jpg,2,incongruent_right,congruent,incongruent,right,repeat,switch,~left_response_box.jpg,~right_response_box.jpg,2,1,0,0,1109
Flanker,1,55,B2,Odd,congruent_right.jpg,1,congruent_right,incongruent,congruent,right,repeat,switch,~left_response_box.jpg,~right_response_box.jpg,2,1,0,0,671
Flanker,1,56,B2,Even,incongruent_left.jpg,2,incongruent_left,congruent,incongruent,left,switch,switch,~left_response_box.jpg,~right_response_box.jpg,1,2,0,0,1047
Flanker,1,57,B2,Odd,incongruent_left.jpg,2,incongruent_left,incongruent,incongruent,left,repeat,repeat,~left_response_box.jpg,~right_response_box.jpg,1,2,0,0,1297
Flanker,1,58,B2,Even,congruent_right.jpg,1,congruent_right,incongruent,congruent,right,switch,switch,~left_response_box.jpg,~right_response_box.jpg,2,1,0,0,969
Flanker,1,59,B2,Odd,congruent_right.jpg,1,congruent_right,congruent,congruent,right,repeat,repeat,~left_response_box.jpg,~right_response_box.jpg,2,1,0,0,1000
Flanker,1,60,B2,Even,congruent_left.jpg,1,congruent_left,congruent,congruent,left,switch,repeat,~left_response_box.jpg,~right_response_box.jpg,1,2,0,0,797
Flanker,1,61,B2,Odd,congruent_left.jpg,1,congruent_left,congruent,congruent,left,repeat,repeat,~left_response_box.jpg,~right_response_box.jpg,1,2,0,0,1156
Flanker,1,62,B2,Even,congruent_left.jpg,1,congruent_left,congruent,congruent,left,repeat,repeat,~left_response_box.jpg,~right_response_box.jpg,1,2,0,0,844
Flanker,1,63,B2,Odd,incongruent_right.jpg,2,incongruent_right,congruent,incongruent,right,switch,switch,~left_response_box.jpg,~right_response_box.jpg,2,1,0,0,906
Flanker,1,64,B2,Even,congruent_left.jpg,1,congruent_left,incongruent,congruent,left,switch,switch,~left_response_box.jpg,~right_response_box.jpg,1,2,0,0,859
Flanker,1,65,B2,Odd,congruent_right.jpg,1,congruent_right,congruent,congruent,right,switch,repeat,~left_response_box.jpg,~right_response_box.jpg,2,1,0,0,859
Flanker,1,66,B2,Even,incongruent_right.jpg,2,incongruent_right,congruent,incongruent,right,repeat,switch,~left_response_box.jpg,~right_response_box.jpg,2,1,0,0,922
Flanker,1,67,B2,Odd,incongruent_right.jpg,2,incongruent_right,incongruent,incongruent,right,repeat,repeat,~left_response_box.jpg,~right_response_box.jpg,2,1,0,0,1218
Flanker,1,68,B2,Even,incongruent_right.jpg,2,incongruent_right,incongruent,incongruent,right,repeat,repeat,~left_response_box.jpg,~right_response_box.jpg,2,1,0,0,1032
Flanker,1,69,B2,Odd,congruent_right.jpg,1,congruent_right,incongruent,congruent,right,repeat,switch,~left_response_box.jpg,~right_response_box.jpg,2,1,0,0,875
Flanker,1,70,B2,Even,congruent_right.jpg,1,congruent_right,congruent,congruent,right,repeat,repeat,~left_response_box.jpg,~right_response_box.jpg,2,1,0,0,750
Flanker,1,71,B2,Odd,congruent_right.jpg,1,congruent_right,congruent,congruent,right,repeat,repeat,~left_response_box.jpg,~right_response_box.jpg,2,1,0,0,984
Flanker,1,72,B2,Even,incongruent_right.jpg,2,incongruent_right,congruent,incongruent,right,repeat,switch,~left_response_box.jpg,~right_response_box.jpg,2,1,0,0,890
Flanker,1,73,B2,Odd,congruent_left.jpg,1,congruent_left,incongruent,congruent,left,switch,switch,~left_response_box.jpg,~right_response_box.jpg,1,2,0,0,859
Flanker,1,74,B2,Even,incongruent_right.jpg,2,incongruent_right,congruent,incongruent,right,switch,switch,~left_response_box.jpg,~right_response_box.jpg,2,1,0,0,890
Flanker,1,75,B2,Odd,congruent_left.jpg,1,congruent_left,incongruent,congruent,left,switch,switch,~left_response_box.jpg,~right_response_box.jpg,1,2,0,0,906
Flanker,1,77,B2,Odd,congruent_right.jpg,1,congruent_right,congruent,congruent,right,switch,repeat,~left_response_box.jpg,~right_response_box.jpg,2,1,0,0,797
Flanker,1,78,B2,Even,incongruent_left.jpg,2,incongruent_left,congruent,incongruent,left,switch,switch,~left_response_box.jpg,~right_response_box.jpg,1,2,0,0,1078
Flanker,1,79,B2,Odd,incongruent_left.jpg,2,incongruent_left,incongruent,incongruent,left,repeat,repeat,~left_response_box.jpg,~right_response_box.jpg,1,2,0,0,984
Flanker,1,80,B2,Even,congruent_left.jpg,1,congruent_left,incongruent,congruent,left,repeat,switch,~left_response_box.jpg,~right_response_box.jpg,1,2,0,0,1000
Flanker,1,81,B2,Odd,incongruent_right.jpg,2,incongruent_right,congruent,incongruent,right,switch,switch,~left_response_box.jpg,~right_response_box.jpg,2,1,0,0,1031
Flanker,1,82,B2,Even,incongruent_right.jpg,2,incongruent_right,incongruent,incongruent,right,repeat,repeat,~left_response_box.jpg,~right_response_box.jpg,2,1,0,0,1015
Flanker,1,83,B2,Odd,incongruent_right.jpg,2,incongruent_right,incongruent,incongruent,right,repeat,repeat,~left_response_box.jpg,~right_response_box.jpg,2,1,0,0,1344
Flanker,1,84,B2,Even,incongruent_right.jpg,2,incongruent_right,incongruent,incongruent,right,repeat,repeat,~left_response_box.jpg,~right_response_box.jpg,2,1,0,0,750
Flanker,1,85,B2,Odd,incongruent_left.jpg,2,incongruent_left,incongruent,incongruent,left,switch,repeat,~left_response_box.jpg,~right_response_box.jpg,1,2,0,0,1078
Flanker,1,86,B2,Even,incongruent_left.jpg,2,incongruent_left,incongruent,incongruent,left,repeat,repeat,~left_response_box.jpg,~right_response_box.jpg,1,2,0,0,765
Flanker,1,87,B2,Odd,congruent_right.jpg,1,congruent_right,incongruent,congruent,right,switch,switch,~left_response_box.jpg,~right_response_box.jpg,2,1,0,0,813
Flanker,1,88,B2,Even,congruent_right.jpg,1,congruent_right,congruent,congruent,right,repeat,repeat,~left_response_box.jpg,~right_response_box.jpg,2,1,0,0,672
Flanker,1,89,B2,Odd,congruent_right.jpg,1,congruent_right,congruent,congruent,right,repeat,repeat,~left_response_box.jpg,~right_response_box.jpg,2,1,0,0,1047
Flanker,1,90,B2,Even,congruent_left.jpg,1,congruent_left,congruent,congruent,left,switch,repeat,~left_response_box.jpg,~right_response_box.jpg,1,2,0,0,1234
Flanker,1,91,B2,Odd,congruent_left.jpg,1,congruent_left,congruent,congruent,left,repeat,repeat,~left_response_box.jpg,~right_response_box.jpg,1,2,0,0,749
Flanker,1,92,B2,Even,congruent_right.jpg,1,congruent_right,congruent,congruent,right,switch,repeat,~left_response_box.jpg,~right_response_box.jpg,2,1,0,0,906
Flanker,1,93,B2,Odd,incongruent_left.jpg,2,incongruent_left,congruent,incongruent,left,switch,switch,~left_response_box.jpg,~right_response_box.jpg,1,2,0,0,1187
Flanker,1,94,B2,Even,incongruent_left.jpg,2,incongruent_left,incongruent,incongruent,left,repeat,repeat,~left_response_box.jpg,~right_response_box.jpg,1,2,0,0,1016
Flanker,1,95,B2,Odd,incongruent_right.jpg,2,incongruent_right,incongruent,incongruent,right,switch,repeat,~left_response_box.jpg,~right_response_box.jpg,2,1,0,0,1156
Flanker,1,96,B2,Even,congruent_left.jpg,1,congruent_left,incongruent,congruent,left,switch,switch,~left_response_box.jpg,~right_response_box.jpg,1,2,0,0,999
Flanker,1,97,B2,Odd,congruent_left.jpg,1,congruent_left,congruent,congruent,left,repeat,repeat,~left_response_box.jpg,~right_response_box.jpg,1,2,0,0,1094
Flanker,1,98,B2,Even,incongruent_left.jpg,2,incongruent_left,congruent,incongruent,left,repeat,switch,~left_response_box.jpg,~right_response_box.jpg,1,2,0,0,1062
Flanker,1,99,B2,Odd,incongruent_right.jpg,2,incongruent_right,incongruent,incongruent,right,switch,repeat,~left_response_box.jpg,~right_response_box.jpg,2,1,0,0,1063
Flanker,1,100,B2,Even,incongruent_left.jpg,2,incongruent_left,incongruent,incongruent,left,switch,repeat,~left_response_box.jpg,~right_response_box.jpg,1,2,0,0,1016
Stroop,1,2,B1,Even,incongruent_red_blue.jpg,2,incongruent_red_blue,incongruent,incongruent,left,repeat,repeat,~red_green_responsebox.jpg,~blue_orange_responsebox.jpg,1,2,0,0,2250
Stroop,1,3,B1,Odd,incongruent_orange_green.jpg,2,incongruent_orange_green,incongruent,incongruent,right,switch,repeat,~red_green_responsebox.jpg,~blue_orange_responsebox.jpg,2,1,0,0,1578
Stroop,1,4,B1,Even,incongruent_orange_green.jpg,2,incongruent_orange_green,incongruent,incongruent,right,repeat,repeat,~red_green_responsebox.jpg,~blue_orange_responsebox.jpg,2,1,0,0,1421
Stroop,1,5,B1,Odd,congruent_blue.jpg,1,congruent_blue,incongruent,congruent,right,repeat,switch,~red_green_responsebox.jpg,~blue_orange_responsebox.jpg,2,1,0,0,1937
Stroop,1,6,B1,Even,congruent_green.jpg,1,congruent_green,congruent,congruent,left,switch,repeat,~red_green_responsebox.jpg,~blue_orange_responsebox.jpg,1,2,0,0,1890
Stroop,1,7,B1,Odd,incongruent_red_orange.jpg,2,incongruent_red_orange,congruent,incongruent,left,repeat,switch,~red_green_responsebox.jpg,~blue_orange_responsebox.jpg,1,2,0,0,1484
Stroop,1,8,B1,Even,congruent_red.jpg,1,congruent_red,incongruent,congruent,left,repeat,switch,~red_green_responsebox.jpg,~blue_orange_responsebox.jpg,1,2,0,0,1172
Stroop,1,9,B1,Odd,incongruent_orange_red.jpg,2,incongruent_orange_red,congruent,incongruent,right,switch,switch,~red_green_responsebox.jpg,~blue_orange_responsebox.jpg,2,1,0,0,1656
Stroop,1,10,B1,Even,congruent_green.jpg,1,congruent_green,incongruent,congruent,left,switch,switch,~red_green_responsebox.jpg,~blue_orange_responsebox.jpg,1,2,0,0,2437
Stroop,1,11,B1,Odd,incongruent_blue_orange.jpg,2,incongruent_blue_orange,congruent,incongruent,right,switch,switch,~red_green_responsebox.jpg,~blue_orange_responsebox.jpg,2,1,0,0,938
Stroop,1,12,B1,Even,congruent_orange.jpg,1,congruent_orange,incongruent,congruent,right,repeat,switch,~red_green_responsebox.jpg,~blue_orange_responsebox.jpg,2,1,0,0,891
Stroop,1,13,B1,Odd,congruent_orange.jpg,1,congruent_orange,congruent,congruent,right,repeat,repeat,~red_green_responsebox.jpg,~blue_orange_responsebox.jpg,2,1,0,0,953
Stroop,1,14,B1,Even,congruent_blue.jpg,1,congruent_blue,congruent,congruent,right,repeat,repeat,~red_green_responsebox.jpg,~blue_orange_responsebox.jpg,2,1,0,0,1218
Stroop,1,15,B1,Odd,congruent_red.jpg,1,congruent_red,congruent,congruent,left,switch,repeat,~red_green_responsebox.jpg,~blue_orange_responsebox.jpg,1,2,0,0,906
Stroop,1,16,B1,Even,incongruent_orange_blue.jpg,2,incongruent_orange_blue,congruent,incongruent,right,switch,switch,~red_green_responsebox.jpg,~blue_orange_responsebox.jpg,2,1,0,0,999
Stroop,1,17,B1,Odd,incongruent_blue_red.jpg,2,incongruent_blue_red,incongruent,incongruent,right,repeat,repeat,~red_green_responsebox.jpg,~blue_orange_responsebox.jpg,2,1,0,0,1281
Stroop,1,18,B1,Even,congruent_green.jpg,1,congruent_green,incongruent,congruent,left,switch,switch,~red_green_responsebox.jpg,~blue_orange_responsebox.jpg,1,2,0,0,875
Stroop,1,19,B1,Odd,congruent_green.jpg,1,congruent_green,congruent,congruent,left,repeat,repeat,~red_green_responsebox.jpg,~blue_orange_responsebox.jpg,1,2,0,0,1265
Stroop,1,20,B1,Even,incongruent_blue_red.jpg,2,incongruent_blue_red,congruent,incongruent,right,switch,switch,~red_green_responsebox.jpg,~blue_orange_responsebox.jpg,2,1,0,0,1499
Stroop,1,21,B1,Odd,congruent_blue.jpg,1,congruent_blue,incongruent,congruent,right,repeat,switch,~red_green_responsebox.jpg,~blue_orange_responsebox.jpg,2,1,0,0,875
Stroop,1,22,B1,Even,incongruent_blue_green.jpg,2,incongruent_blue_green,congruent,incongruent,right,repeat,switch,~red_green_responsebox.jpg,~blue_orange_responsebox.jpg,2,1,0,0,1015
Stroop,1,23,B1,Odd,incongruent_orange_green.jpg,2,incongruent_orange_green,incongruent,incongruent,right,repeat,repeat,~red_green_responsebox.jpg,~blue_orange_responsebox.jpg,2,1,0,0,1187
Stroop,1,24,B1,Even,congruent_red.jpg,1,congruent_red,incongruent,congruent,left,switch,switch,~red_green_responsebox.jpg,~blue_orange_responsebox.jpg,1,2,0,0,1062
Stroop,1,25,B1,Odd,congruent_orange.jpg,1,congruent_orange,congruent,congruent,right,switch,repeat,~red_green_responsebox.jpg,~blue_orange_responsebox.jpg,2,1,0,0,1094
Stroop,1,27,B1,Odd,congruent_blue.jpg,1,congruent_blue,congruent,congruent,right,repeat,repeat,~red_green_responsebox.jpg,~blue_orange_responsebox.jpg,2,1,0,0,1031
Stroop,1,28,B1,Even,congruent_orange.jpg,1,congruent_orange,congruent,congruent,right,repeat,repeat,~red_green_responsebox.jpg,~blue_orange_responsebox.jpg,2,1,0,0,812
Stroop,1,29,B1,Odd,incongruent_green_red.jpg,2,incongruent_green_red,congruent,incongruent,left,switch,switch,~red_green_responsebox.jpg,~blue_orange_responsebox.jpg,1,2,0,0,1468
Stroop,1,30,B1,Even,congruent_orange.jpg,1,congruent_orange,incongruent,congruent,right,switch,switch,~red_green_responsebox.jpg,~blue_orange_responsebox.jpg,2,1,0,0,859
Stroop,1,31,B1,Odd,congruent_green.jpg,1,congruent_green,congruent,congruent,left,switch,repeat,~red_green_responsebox.jpg,~blue_orange_responsebox.jpg,1,2,0,0,906
Stroop,1,32,B1,Even,congruent_blue.jpg,1,congruent_blue,congruent,congruent,right,switch,repeat,~red_green_responsebox.jpg,~blue_orange_responsebox.jpg,2,1,0,0,1032
Stroop,1,33,B1,Odd,congruent_red.jpg,1,congruent_red,congruent,congruent,left,switch,repeat,~red_green_responsebox.jpg,~blue_orange_responsebox.jpg,1,2,0,0,1000
Stroop,1,34,B1,Even,incongruent_blue_green.jpg,2,incongruent_blue_green,congruent,incongruent,right,switch,switch,~red_green_responsebox.jpg,~blue_orange_responsebox.jpg,2,1,0,0,1750
Stroop,1,35,B1,Odd,incongruent_green_red.jpg,2,incongruent_green_red,incongruent,incongruent,left,switch,repeat,~red_green_responsebox.jpg,~blue_orange_responsebox.jpg,1,2,0,0,843
Stroop,1,36,B1,Even,congruent_orange.jpg,1,congruent_orange,incongruent,congruent,right,switch,switch,~red_green_responsebox.jpg,~blue_orange_responsebox.jpg,2,1,0,0,1109
Stroop,1,37,B1,Odd,congruent_green.jpg,1,congruent_green,congruent,congruent,left,switch,repeat,~red_green_responsebox.jpg,~blue_orange_responsebox.jpg,1,2,0,0,828
Stroop,1,38,B1,Even,congruent_green.jpg,1,congruent_green,congruent,congruent,left,repeat,repeat,~red_green_responsebox.jpg,~blue_orange_responsebox.jpg,1,2,0,0,906
Stroop,1,39,B1,Odd,incongruent_red_orange.jpg,2,incongruent_red_orange,congruent,incongruent,left,repeat,switch,~red_green_responsebox.jpg,~blue_orange_responsebox.jpg,1,2,0,0,875
Stroop,1,40,B1,Even,incongruent_red_green.jpg,2,incongruent_red_green,incongruent,incongruent,left,repeat,repeat,~red_green_responsebox.jpg,~blue_orange_responsebox.jpg,1,2,0,0,968
Stroop,1,41,B1,Odd,congruent_orange.jpg,1,congruent_orange,incongruent,congruent,right,switch,switch,~red_green_responsebox.jpg,~blue_orange_responsebox.jpg,2,1,0,0,828
Stroop,1,42,B1,Even,incongruent_blue_green.jpg,2,incongruent_blue_green,congruent,incongruent,right,repeat,switch,~red_green_responsebox.jpg,~blue_orange_responsebox.jpg,2,1,0,0,1890
Stroop,1,43,B1,Odd,congruent_red.jpg,1,congruent_red,incongruent,congruent,left,switch,switch,~red_green_responsebox.jpg,~blue_orange_responsebox.jpg,1,2,0,0,813
Stroop,1,44,B1,Even,incongruent_green_blue.jpg,2,incongruent_green_blue,congruent,incongruent,left,repeat,switch,~red_green_responsebox.jpg,~blue_orange_responsebox.jpg,1,2,0,0,1266
Stroop,1,45,B1,Odd,incongruent_orange_blue.jpg,2,incongruent_orange_blue,incongruent,incongruent,right,switch,repeat,~red_green_responsebox.jpg,~blue_orange_responsebox.jpg,2,1,0,0,953
Stroop,1,46,B1,Even,congruent_orange.jpg,1,congruent_orange,incongruent,congruent,right,repeat,switch,~red_green_responsebox.jpg,~blue_orange_responsebox.jpg,2,1,0,0,1109
Stroop,1,47,B1,Odd,congruent_blue.jpg,1,congruent_blue,congruent,congruent,right,repeat,repeat,~red_green_responsebox.jpg,~blue_orange_responsebox.jpg,2,1,0,0,1234
Stroop,1,48,B1,Even,incongruent_orange_blue.jpg,2,incongruent_orange_blue,congruent,incongruent,right,repeat,switch,~red_green_responsebox.jpg,~blue_orange_responsebox.jpg,2,1,0,0,921
Stroop,1,49,B1,Odd,incongruent_green_orange.jpg,2,incongruent_green_orange,incongruent,incongruent,left,switch,repeat,~red_green_responsebox.jpg,~blue_orange_responsebox.jpg,1,2,0,0,953
Stroop,1,50,B1,Even,incongruent_red_blue.jpg,2,incongruent_red_blue,incongruent,incongruent,left,repeat,repeat,~red_green_responsebox.jpg,~blue_orange_responsebox.jpg,1,2,0,0,1016
Stroop,1,52,B2,Even,incongruent_red_orange.jpg,2,incongruent_red_orange,incongruent,incongruent,left,repeat,repeat,~red_green_responsebox.jpg,~blue_orange_responsebox.jpg,1,2,0,0,1343
Stroop,1,53,B2,Odd,incongruent_green_red.jpg,2,incongruent_green_red,incongruent,incongruent,left,repeat,repeat,~red_green_responsebox.jpg,~blue_orange_responsebox.jpg,1,2,0,0,844
Stroop,1,54,B2,Even,incongruent_blue_orange.jpg,2,incongruent_blue_orange,incongruent,incongruent,right,switch,repeat,~red_green_responsebox.jpg,~blue_orange_responsebox.jpg,2,1,0,0,1828
Stroop,1,55,B2,Odd,congruent_orange.jpg,1,congruent_orange,incongruent,congruent,right,repeat,switch,~red_green_responsebox.jpg,~blue_orange_responsebox.jpg,2,1,0,0,938
Stroop,1,56,B2,Even,congruent_red.jpg,1,congruent_red,congruent,congruent,left,switch,repeat,~red_green_responsebox.jpg,~blue_orange_responsebox.jpg,1,2,0,0,984
Stroop,1,57,B2,Odd,incongruent_green_orange.jpg,2,incongruent_green_orange,congruent,incongruent,left,repeat,switch,~red_green_responsebox.jpg,~blue_orange_responsebox.jpg,1,2,0,0,891
Stroop,1,58,B2,Even,congruent_blue.jpg,1,congruent_blue,incongruent,congruent,right,switch,switch,~red_green_responsebox.jpg,~blue_orange_responsebox.jpg,2,1,0,0,734
Stroop,1,59,B2,Odd,incongruent_blue_orange.jpg,2,incongruent_blue_orange,congruent,incongruent,right,repeat,switch,~red_green_responsebox.jpg,~blue_orange_responsebox.jpg,2,1,0,0,1266
Stroop,1,60,B2,Even,congruent_orange.jpg,1,congruent_orange,incongruent,congruent,right,repeat,switch,~red_green_responsebox.jpg,~blue_orange_responsebox.jpg,2,1,0,0,813
Stroop,1,61,B2,Odd,incongruent_blue_green.jpg,2,incongruent_blue_green,congruent,incongruent,right,repeat,switch,~red_green_responsebox.jpg,~blue_orange_responsebox.jpg,2,1,0,0,1000
Stroop,1,62,B2,Even,congruent_orange.jpg,1,congruent_orange,incongruent,congruent,right,repeat,switch,~red_green_responsebox.jpg,~blue_orange_responsebox.jpg,2,1,0,0,876
Stroop,1,63,B2,Odd,incongruent_green_orange.jpg,2,incongruent_green_orange,congruent,incongruent,left,switch,switch,~red_green_responsebox.jpg,~blue_orange_responsebox.jpg,1,2,0,0,766
Stroop,1,64,B2,Even,incongruent_orange_blue.jpg,2,incongruent_orange_blue,incongruent,incongruent,right,switch,repeat,~red_green_responsebox.jpg,~blue_orange_responsebox.jpg,2,1,0,0,1031
Stroop,1,65,B2,Odd,incongruent_orange_red.jpg,2,incongruent_orange_red,incongruent,incongruent,right,repeat,repeat,~red_green_responsebox.jpg,~blue_orange_responsebox.jpg,2,1,0,0,1546
Stroop,1,66,B2,Even,incongruent_green_orange.jpg,2,incongruent_green_orange,incongruent,incongruent,left,switch,repeat,~red_green_responsebox.jpg,~blue_orange_responsebox.jpg,1,2,0,0,1328
Stroop,1,67,B2,Odd,congruent_green.jpg,1,congruent_green,incongruent,congruent,left,repeat,switch,~red_green_responsebox.jpg,~blue_orange_responsebox.jpg,1,2,0,0,1219
Stroop,1,68,B2,Even,incongruent_orange_green.jpg,2,incongruent_orange_green,congruent,incongruent,right,switch,switch,~red_green_responsebox.jpg,~blue_orange_responsebox.jpg,2,1,0,0,906
Stroop,1,69,B2,Odd,congruent_green.jpg,1,congruent_green,incongruent,congruent,left,switch,switch,~red_green_responsebox.jpg,~blue_orange_responsebox.jpg,1,2,0,0,1453
Stroop,1,70,B2,Even,incongruent_red_green.jpg,2,incongruent_red_green,congruent,incongruent,left,repeat,switch,~red_green_responsebox.jpg,~blue_orange_responsebox.jpg,1,2,0,0,1234
Stroop,1,71,B2,Odd,congruent_red.jpg,1,congruent_red,incongruent,congruent,left,repeat,switch,~red_green_responsebox.jpg,~blue_orange_responsebox.jpg,1,2,0,0,937
Stroop,1,72,B2,Even,incongruent_red_green.jpg,2,incongruent_red_green,congruent,incongruent,left,repeat,switch,~red_green_responsebox.jpg,~blue_orange_responsebox.jpg,1,2,0,0,1094
Stroop,1,73,B2,Odd,incongruent_red_blue.jpg,2,incongruent_red_blue,incongruent,incongruent,left,repeat,repeat,~red_green_responsebox.jpg,~blue_orange_responsebox.jpg,1,2,0,0,921
Stroop,1,74,B2,Even,congruent_red.jpg,1,congruent_red,incongruent,congruent,left,repeat,switch,~red_green_responsebox.jpg,~blue_orange_responsebox.jpg,1,2,0,0,827
Stroop,1,75,B2,Odd,congruent_blue.jpg,1,congruent_blue,congruent,congruent,right,switch,repeat,~red_green_responsebox.jpg,~blue_orange_responsebox.jpg,2,1,0,0,797
Stroop,1,77,B2,Odd,congruent_red.jpg,1,congruent_red,congruent,congruent,left,switch,repeat,~red_green_responsebox.jpg,~blue_orange_responsebox.jpg,1,2,0,0,1265
Stroop,1,78,B2,Even,congruent_red.jpg,1,congruent_red,congruent,congruent,left,repeat,repeat,~red_green_responsebox.jpg,~blue_orange_responsebox.jpg,1,2,0,0,812
Stroop,1,79,B2,Odd,incongruent_orange_red.jpg,2,incongruent_orange_red,congruent,incongruent,right,switch,switch,~red_green_responsebox.jpg,~blue_orange_responsebox.jpg,2,1,0,0,891
Stroop,1,80,B2,Even,congruent_blue.jpg,1,congruent_blue,incongruent,congruent,right,repeat,switch,~red_green_responsebox.jpg,~blue_orange_responsebox.jpg,2,1,0,0,1281
Stroop,1,81,B2,Odd,congruent_blue.jpg,1,congruent_blue,congruent,congruent,right,repeat,repeat,~red_green_responsebox.jpg,~blue_orange_responsebox.jpg,2,1,0,0,781
Stroop,1,82,B2,Even,incongruent_green_blue.jpg,2,incongruent_green_blue,congruent,incongruent,left,switch,switch,~red_green_responsebox.jpg,~blue_orange_responsebox.jpg,1,2,0,0,812
Stroop,1,83,B2,Odd,incongruent_blue_orange.jpg,2,incongruent_blue_orange,incongruent,incongruent,right,switch,repeat,~red_green_responsebox.jpg,~blue_orange_responsebox.jpg,2,1,0,0,1406
Stroop,1,84,B2,Even,incongruent_red_orange.jpg,2,incongruent_red_orange,incongruent,incongruent,left,switch,repeat,~red_green_responsebox.jpg,~blue_orange_responsebox.jpg,1,2,0,0,1218
Stroop,1,85,B2,Odd,incongruent_green_blue.jpg,2,incongruent_green_blue,incongruent,incongruent,left,repeat,repeat,~red_green_responsebox.jpg,~blue_orange_responsebox.jpg,1,2,0,0,1094
Stroop,1,86,B2,Even,incongruent_orange_red.jpg,2,incongruent_orange_red,incongruent,incongruent,right,switch,repeat,~red_green_responsebox.jpg,~blue_orange_responsebox.jpg,2,1,0,0,734
Stroop,1,87,B2,Odd,incongruent_red_blue.jpg,2,incongruent_red_blue,incongruent,incongruent,left,switch,repeat,~red_green_responsebox.jpg,~blue_orange_responsebox.jpg,1,2,0,0,1094
Stroop,1,88,B2,Even,congruent_green.jpg,1,congruent_green,incongruent,congruent,left,repeat,switch,~red_green_responsebox.jpg,~blue_orange_responsebox.jpg,1,2,0,0,812
Stroop,1,89,B2,Odd,incongruent_green_red.jpg,2,incongruent_green_red,congruent,incongruent,left,repeat,switch,~red_green_responsebox.jpg,~blue_orange_responsebox.jpg,1,2,0,0,843
Stroop,1,90,B2,Even,congruent_orange.jpg,1,congruent_orange,incongruent,congruent,right,switch,switch,~red_green_responsebox.jpg,~blue_orange_responsebox.jpg,2,1,0,0,874
Stroop,1,91,B2,Odd,congruent_blue.jpg,1,congruent_blue,congruent,congruent,right,repeat,repeat,~red_green_responsebox.jpg,~blue_orange_responsebox.jpg,2,1,0,0,1406
Stroop,1,92,B2,Even,congruent_green.jpg,1,congruent_green,congruent,congruent,left,switch,repeat,~red_green_responsebox.jpg,~blue_orange_responsebox.jpg,1,2,0,0,860
Stroop,1,93,B2,Odd,congruent_red.jpg,1,congruent_red,congruent,congruent,left,repeat,repeat,~red_green_responsebox.jpg,~blue_orange_responsebox.jpg,1,2,0,0,749
Stroop,1,94,B2,Even,incongruent_blue_red.jpg,2,incongruent_blue_red,congruent,incongruent,right,switch,switch,~red_green_responsebox.jpg,~blue_orange_responsebox.jpg,2,1,0,0,1141
Stroop,1,95,B2,Odd,incongruent_blue_red.jpg,2,incongruent_blue_red,incongruent,incongruent,right,repeat,repeat,~red_green_responsebox.jpg,~blue_orange_responsebox.jpg,2,1,0,0,828
Stroop,1,96,B2,Even,congruent_red.jpg,1,congruent_red,incongruent,congruent,left,switch,switch,~red_green_responsebox.jpg,~blue_orange_responsebox.jpg,1,2,0,0,953
Stroop,1,97,B2,Odd,congruent_blue.jpg,1,congruent_blue,congruent,congruent,right,switch,repeat,~red_green_responsebox.jpg,~blue_orange_responsebox.jpg,2,1,0,0,1406
Stroop,1,98,B2,Even,incongruent_red_green.jpg,2,incongruent_red_green,congruent,incongruent,left,switch,switch,~red_green_responsebox.jpg,~blue_orange_responsebox.jpg,1,2,0,0,1015
Stroop,1,99,B2,Odd,congruent_green.jpg,1,congruent_green,incongruent,congruent,left,repeat,switch,~red_green_responsebox.jpg,~blue_orange_responsebox.jpg,1,2,0,0,859
Stroop,1,100,B2,Even,incongruent_green_blue.jpg,2,incongruent_green_blue,congruent,incongruent,left,repeat,switch,~red_green_responsebox.jpg,~blue_orange_responsebox.jpg,1,2,0,0,1031
Flanker,2,2,B1,Even,congruent_right.jpg,1,congruent_right,incongruent,congruent,right,switch,switch,~left_response_box.jpg,~right_response_box.jpg,2,1,0,0,2812
Flanker,2,3,B1,Odd,incongruent_left.jpg,2,incongruent_left,congruent,incongruent,left,switch,switch,~left_response_box.jpg,~right_response_box.jpg,1,2,0,0,2546
Flanker,2,4,B1,Even,congruent_right.jpg,1,congruent_right,incongruent,congruent,right,switch,switch,~left_response_box.jpg,~right_response_box.jpg,2,1,0,0,1297
Flanker,2,5,B1,Odd,incongruent_right.jpg,999,incongruent_right,congruent,incongruent,right,repeat,switch,~left_response_box.jpg,~right_response_box.jpg,1,1,1,0,1234
Flanker,2,6,B1,Even,congruent_left.jpg,1,congruent_left,incongruent,congruent,left,switch,switch,~left_response_box.jpg,~right_response_box.jpg,1,2,0,1,1296
Flanker,2,7,B1,Odd,incongruent_left.jpg,999,incongruent_left,congruent,incongruent,left,repeat,switch,~left_response_box.jpg,~right_response_box.jpg,2,2,1,0,1328
Flanker,2,8,B1,Even,incongruent_left.jpg,2,incongruent_left,incongruent,incongruent,left,repeat,repeat,~left_response_box.jpg,~right_response_box.jpg,1,2,0,1,1172
Flanker,2,9,B1,Odd,congruent_right.jpg,999,congruent_right,incongruent,congruent,right,switch,switch,~left_response_box.jpg,~right_response_box.jpg,1,1,1,0,1062
Flanker,2,10,B1,Even,congruent_left.jpg,999,congruent_left,congruent,congruent,left,switch,repeat,~left_response_box.jpg,~right_response_box.jpg,2,2,1,1,1297
Flanker,2,11,B1,Odd,incongruent_right.jpg,999,incongruent_right,congruent,incongruent,right,switch,switch,~left_response_box.jpg,~right_response_box.jpg,1,1,1,1,1625
Flanker,2,12,B1,Even,incongruent_left.jpg,999,incongruent_left,incongruent,incongruent,left,switch,repeat,~left_response_box.jpg,~right_response_box.jpg,2,2,1,1,1734
Flanker,2,13,B1,Odd,congruent_right.jpg,999,congruent_right,incongruent,congruent,right,switch,switch,~left_response_box.jpg,~right_response_box.jpg,1,1,1,1,1047
Flanker,2,14,B1,Even,congruent_right.jpg,1,congruent_right,congruent,congruent,right,repeat,repeat,~left_response_box.jpg,~right_response_box.jpg,2,1,0,1,1421
Flanker,2,15,B1,Odd,congruent_right.jpg,1,congruent_right,congruent,congruent,right,repeat,repeat,~left_response_box.jpg,~right_response_box.jpg,2,1,0,0,1391
Flanker,2,16,B1,Even,incongruent_left.jpg,999,incongruent_left,congruent,incongruent,left,switch,switch,~left_response_box.jpg,~right_response_box.jpg,2,2,1,0,1687
Flanker,2,17,B1,Odd,congruent_left.jpg,1,congruent_left,incongruent,congruent,left,repeat,switch,~left_response_box.jpg,~right_response_box.jpg,1,2,0,1,1109
Flanker,2,18,B1,Even,incongruent_left.jpg,999,incongruent_left,congruent,incongruent,left,repeat,switch,~left_response_box.jpg,~right_response_box.jpg,2,2,1,0,1843
Flanker,2,19,B1,Odd,incongruent_left.jpg,2,incongruent_left,incongruent,incongruent,left,repeat,repeat,~left_response_box.jpg,~right_response_box.jpg,1,2,0,1,1281
Flanker,2,20,B1,Even,incongruent_left.jpg,2,incongruent_left,incongruent,incongruent,left,repeat,repeat,~left_response_box.jpg,~right_response_box.jpg,1,2,0,0,1109
Flanker,2,21,B1,Odd,incongruent_left.jpg,2,incongruent_left,incongruent,incongruent,left,repeat,repeat,~left_response_box.jpg,~right_response_box.jpg,1,2,0,0,859
Flanker,2,22,B1,Even,incongruent_left.jpg,2,incongruent_left,incongruent,incongruent,left,repeat,repeat,~left_response_box.jpg,~right_response_box.jpg,1,2,0,0,797
Flanker,2,23,B1,Odd,congruent_left.jpg,1,congruent_left,incongruent,congruent,left,repeat,switch,~left_response_box.jpg,~right_response_box.jpg,1,2,0,0,2218
Flanker,2,24,B1,Even,incongruent_right.jpg,2,incongruent_right,congruent,incongruent,right,switch,switch,~left_response_box.jpg,~right_response_box.jpg,2,1,0,0,2124
Flanker,2,25,B1,Odd,congruent_right.jpg,1,congruent_right,incongruent,congruent,right,repeat,switch,~left_response_box.jpg,~right_response_box.jpg,2,1,0,0,1281
Flanker,2,27,B1,Odd,congruent_right.jpg,1,congruent_right,congruent,congruent,right,repeat,repeat,~left_response_box.jpg,~right_response_box.jpg,2,1,0,0,1094
Flanker,2,28,B1,Even,congruent_right.jpg,1,congruent_right,congruent,congruent,right,repeat,repeat,~left_response_box.jpg,~right_response_box.jpg,2,1,0,0,1141
Flanker,2,29,B1,Odd,congruent_right.jpg,1,congruent_right,congruent,congruent,right,repeat,repeat,~left_response_box.jpg,~right_response_box.jpg,2,1,0,0,1140
Flanker,2,30,B1,Even,congruent_left.jpg,1,congruent_left,congruent,congruent,left,switch,repeat,~left_response_box.jpg,~right_response_box.jpg,1,2,0,0,968
Flanker,2,31,B1,Odd,incongruent_left.jpg,999,incongruent_left,congruent,incongruent,left,repeat,switch,~left_response_box.jpg,~right_response_box.jpg,2,2,1,0,1577
Flanker,2,32,B1,Even,congruent_left.jpg,1,congruent_left,incongruent,congruent,left,repeat,switch,~left_response_box.jpg,~right_response_box.jpg,1,2,0,1,1031
Flanker,2,33,B1,Odd,congruent_left.jpg,1,congruent_left,congruent,congruent,left,repeat,repeat,~left_response_box.jpg,~right_response_box.jpg,1,2,0,0,1172
Flanker,2,34,B1,Even,incongruent_right.jpg,2,incongruent_right,congruent,incongruent,right,switch,switch,~left_response_box.jpg,~right_response_box.jpg,2,1,0,0,1765
Flanker,2,35,B1,Odd,congruent_right.jpg,1,congruent_right,incongruent,congruent,right,repeat,switch,~left_response_box.jpg,~right_response_box.jpg,2,1,0,0,1172
Flanker,2,36,B1,Even,congruent_right.jpg,1,congruent_right,congruent,congruent,right,repeat,repeat,~left_response_box.jpg,~right_response_box.jpg,2,1,0,0,1328
Flanker,2,37,B1,Odd,congruent_left.jpg,1,congruent_left,congruent,congruent,left,switch,repeat,~left_response_box.jpg,~right_response_box.jpg,1,2,0,0,1031
Flanker,2,38,B1,Even,incongruent_left.jpg,2,incongruent_left,congruent,incongruent,left,repeat,switch,~left_response_box.jpg,~right_response_box.jpg,1,2,0,0,1484
Flanker,2,39,B1,Odd,incongruent_right.jpg,2,incongruent_right,incongruent,incongruent,right,switch,repeat,~left_response_box.jpg,~right_response_box.jpg,2,1,0,0,1406
Flanker,2,40,B1,Even,incongruent_right.jpg,2,incongruent_right,incongruent,incongruent,right,repeat,repeat,~left_response_box.jpg,~right_response_box.jpg,2,1,0,0,1234
Flanker,2,41,B1,Odd,congruent_right.jpg,1,congruent_right,incongruent,congruent,right,repeat,switch,~left_response_box.jpg,~right_response_box.jpg,2,1,0,0,1156
Flanker,2,42,B1,Even,congruent_right.jpg,1,congruent_right,congruent,congruent,right,repeat,repeat,~left_response_box.jpg,~right_response_box.jpg,2,1,0,0,1344
Flanker,2,43,B1,Odd,congruent_right.jpg,1,congruent_right,congruent,congruent,right,repeat,repeat,~left_response_box.jpg,~right_response_box.jpg,2,1,0,0,1000
Flanker,2,44,B1,Even,incongruent_right.jpg,2,incongruent_right,congruent,incongruent,right,repeat,switch,~left_response_box.jpg,~right_response_box.jpg,2,1,0,0,1297
Flanker,2,45,B1,Odd,incongruent_right.jpg,2,incongruent_right,incongruent,incongruent,right,repeat,repeat,~left_response_box.jpg,~right_response_box.jpg,2,1,0,0,1156
Flanker,2,46,B1,Even,incongruent_right.jpg,2,incongruent_right,incongruent,incongruent,right,repeat,repeat,~left_response_box.jpg,~right_response_box.jpg,2,1,0,0,1016
Flanker,2,47,B1,Odd,incongruent_left.jpg,999,incongruent_left,incongruent,incongruent,left,switch,repeat,~left_response_box.jpg,~right_response_box.jpg,2,2,1,0,1625
Flanker,2,48,B1,Even,incongruent_right.jpg,999,incongruent_right,incongruent,incongruent,right,switch,repeat,~left_response_box.jpg,~right_response_box.jpg,1,1,1,1,1422
Flanker,2,49,B1,Odd,congruent_right.jpg,1,congruent_right,incongruent,congruent,right,repeat,switch,~left_response_box.jpg,~right_response_box.jpg,2,1,0,1,1062
Flanker,2,50,B1,Even,incongruent_left.jpg,2,incongruent_left,congruent,incongruent,left,switch,switch,~left_response_box.jpg,~right_response_box.jpg,1,2,0,0,1640
Flanker,2,52,B2,Even,congruent_left.jpg,1,congruent_left,incongruent,congruent,left,repeat,switch,~left_response_box.jpg,~right_response_box.jpg,1,2,0,0,952
Flanker,2,53,B2,Odd,incongruent_right.jpg,999,incongruent_right,congruent,incongruent,right,switch,switch,~left_response_box.jpg,~right_response_box.jpg,1,1,1,0,1359
Flanker,2,54,B2,Even,incongruent_left.jpg,2,incongruent_left,incongruent,incongruent,left,switch,repeat,~left_response_box.jpg,~right_response_box.jpg,1,2,0,1,1640
Flanker,2,55,B2,Odd,incongruent_right.jpg,2,incongruent_right,incongruent,incongruent,right,switch,repeat,~left_response_box.jpg,~right_response_box.jpg,2,1,0,0,2124
Flanker,2,56,B2,Even,congruent_left.jpg,999,congruent_left,incongruent,congruent,left,switch,switch,~left_response_box.jpg,~right_response_box.jpg,2,2,1,0,1203
Flanker,2,57,B2,Odd,incongruent_left.jpg,2,incongruent_left,congruent,incongruent,left,repeat,switch,~left_response_box.jpg,~right_response_box.jpg,1,2,0,1,1156
Flanker,2,58,B2,Even,incongruent_left.jpg,2,incongruent_left,incongruent,incongruent,left,repeat,repeat,~left_response_box.jpg,~right_response_box.jpg,1,2,0,0,1109
Flanker,2,59,B2,Odd,congruent_left.jpg,1,congruent_left,incongruent,congruent,left,repeat,switch,~left_response_box.jpg,~right_response_box.jpg,1,2,0,0,1781
Flanker,2,60,B2,Even,incongruent_left.jpg,2,incongruent_left,congruent,incongruent,left,repeat,switch,~left_response_box.jpg,~right_response_box.jpg,1,2,0,0,1578
Flanker,2,61,B2,Odd,incongruent_right.jpg,2,incongruent_right,incongruent,incongruent,right,switch,repeat,~left_response_box.jpg,~right_response_box.jpg,2,1,0,0,2156
Flanker,2,62,B2,Even,incongruent_right.jpg,2,incongruent_right,incongruent,incongruent,right,repeat,repeat,~left_response_box.jpg,~right_response_box.jpg,2,1,0,0,1250
Flanker,2,63,B2,Odd,congruent_left.jpg,999,congruent_left,incongruent,congruent,left,switch,switch,~left_response_box.jpg,~right_response_box.jpg,2,2,1,0,1000
Flanker,2,64,B2,Even,congruent_right.jpg,1,congruent_right,congruent,congruent,right,switch,repeat,~left_response_box.jpg,~right_response_box.jpg,2,1,0,1,1547
Flanker,2,65,B2,Odd,incongruent_left.jpg,2,incongruent_left,congruent,incongruent,left,switch,switch,~left_response_box.jpg,~right_response_box.jpg,1,2,0,0,1609
Flanker,2,66,B2,Even,congruent_right.jpg,1,congruent_right,incongruent,congruent,right,switch,switch,~left_response_box.jpg,~right_response_box.jpg,2,1,0,0,1297
Flanker,2,67,B2,Odd,incongruent_right.jpg,2,incongruent_right,congruent,incongruent,right,repeat,switch,~left_response_box.jpg,~right_response_box.jpg,2,1,0,0,1734
Flanker,2,68,B2,Even,congruent_left.jpg,1,congruent_left,incongruent,congruent,left,switch,switch,~left_response_box.jpg,~right_response_box.jpg,1,2,0,0,1063
Flanker,2,69,B2,Odd,congruent_left.jpg,1,congruent_left,congruent,congruent,left,repeat,repeat,~left_response_box.jpg,~right_response_box.jpg,1,2,0,0,750
Flanker,2,70,B2,Even,congruent_right.jpg,1,congruent_right,congruent,congruent,right,switch,repeat,~left_response_box.jpg,~right_response_box.jpg,2,1,0,0,953
Flanker,2,71,B2,Odd,incongruent_right.jpg,2,incongruent_right,congruent,incongruent,right,repeat,switch,~left_response_box.jpg,~right_response_box.jpg,2,1,0,0,1156
Flanker,2,72,B2,Even,congruent_right.jpg,1,congruent_right,incongruent,congruent,right,repeat,switch,~left_response_box.jpg,~right_response_box.jpg,2,1,0,0,1016
Flanker,2,73,B2,Odd,congruent_left.jpg,1,congruent_left,congruent,congruent,left,switch,repeat,~left_response_box.jpg,~right_response_box.jpg,1,2,0,0,750
Flanker,2,74,B2,Even,congruent_left.jpg,1,congruent_left,congruent,congruent,left,repeat,repeat,~left_response_box.jpg,~right_response_box.jpg,1,2,0,0,765
Flanker,2,75,B2,Odd,incongruent_right.jpg,2,incongruent_right,congruent,incongruent,right,switch,switch,~left_response_box.jpg,~right_response_box.jpg,2,1,0,0,1046
Flanker,2,77,B2,Odd,incongruent_left.jpg,2,incongruent_left,incongruent,incongruent,left,switch,repeat,~left_response_box.jpg,~right_response_box.jpg,1,2,0,0,1391
Flanker,2,78,B2,Even,incongruent_left.jpg,2,incongruent_left,incongruent,incongruent,left,repeat,repeat,~left_response_box.jpg,~right_response_box.jpg,1,2,0,0,1125
Flanker,2,79,B2,Odd,congruent_left.jpg,1,congruent_left,incongruent,congruent,left,repeat,switch,~left_response_box.jpg,~right_response_box.jpg,1,2,0,0,796
Flanker,2,80,B2,Even,congruent_left.jpg,1,congruent_left,congruent,congruent,left,repeat,repeat,~left_response_box.jpg,~right_response_box.jpg,1,2,0,0,766
Flanker,2,81,B2,Odd,incongruent_left.jpg,2,incongruent_left,congruent,incongruent,left,repeat,switch,~left_response_box.jpg,~right_response_box.jpg,1,2,0,0,1297
Flanker,2,82,B2,Even,congruent_left.jpg,1,congruent_left,incongruent,congruent,left,repeat,switch,~left_response_box.jpg,~right_response_box.jpg,1,2,0,0,922
Flanker,2,83,B2,Odd,congruent_left.jpg,1,congruent_left,congruent,congruent,left,repeat,repeat,~left_response_box.jpg,~right_response_box.jpg,1,2,0,0,1031
Flanker,2,84,B2,Even,congruent_left.jpg,1,congruent_left,congruent,congruent,left,repeat,repeat,~left_response_box.jpg,~right_response_box.jpg,1,2,0,0,859
Flanker,2,85,B2,Odd,congruent_right.jpg,1,congruent_right,congruent,congruent,right,switch,repeat,~left_response_box.jpg,~right_response_box.jpg,2,1,0,0,1062
Flanker,2,86,B2,Even,congruent_right.jpg,1,congruent_right,congruent,congruent,right,repeat,repeat,~left_response_box.jpg,~right_response_box.jpg,2,1,0,0,1062
Flanker,2,87,B2,Odd,incongruent_right.jpg,2,incongruent_right,congruent,incongruent,right,repeat,switch,~left_response_box.jpg,~right_response_box.jpg,2,1,0,0,1407
Flanker,2,88,B2,Even,incongruent_right.jpg,2,incongruent_right,incongruent,incongruent,right,repeat,repeat,~left_response_box.jpg,~right_response_box.jpg,2,1,0,0,1468
Flanker,2,89,B2,Odd,incongruent_right.jpg,2,incongruent_right,incongruent,incongruent,right,repeat,repeat,~left_response_box.jpg,~right_response_box.jpg,2,1,0,0,1046
Flanker,2,90,B2,Even,incongruent_left.jpg,2,incongruent_left,incongruent,incongruent,left,switch,repeat,~left_response_box.jpg,~right_response_box.jpg,1,2,0,0,1656
Flanker,2,91,B2,Odd,incongruent_left.jpg,2,incongruent_left,incongruent,incongruent,left,repeat,repeat,~left_response_box.jpg,~right_response_box.jpg,1,2,0,0,1468
Flanker,2,92,B2,Even,incongruent_right.jpg,2,incongruent_right,incongruent,incongruent,right,switch,repeat,~left_response_box.jpg,~right_response_box.jpg,2,1,0,0,1453
Flanker,2,93,B2,Odd,incongruent_right.jpg,2,incongruent_right,incongruent,incongruent,right,repeat,repeat,~left_response_box.jpg,~right_response_box.jpg,2,1,0,0,1125
Flanker,2,94,B2,Even,congruent_left.jpg,1,congruent_left,incongruent,congruent,left,switch,switch,~left_response_box.jpg,~right_response_box.jpg,1,2,0,0,1719
Flanker,2,95,B2,Odd,congruent_left.jpg,1,congruent_left,congruent,congruent,left,repeat,repeat,~left_response_box.jpg,~right_response_box.jpg,1,2,0,0,968
Flanker,2,96,B2,Even,incongruent_right.jpg,2,incongruent_right,congruent,incongruent,right,switch,switch,~left_response_box.jpg,~right_response_box.jpg,2,1,0,0,1328
Flanker,2,97,B2,Odd,incongruent_right.jpg,2,incongruent_right,incongruent,incongruent,right,repeat,repeat,~left_response_box.jpg,~right_response_box.jpg,2,1,0,0,1156
Flanker,2,98,B2,Even,congruent_right.jpg,1,congruent_right,incongruent,congruent,right,repeat,switch,~left_response_box.jpg,~right_response_box.jpg,2,1,0,0,1249
Flanker,2,99,B2,Odd,congruent_left.jpg,1,congruent_left,congruent,congruent,left,switch,repeat,~left_response_box.jpg,~right_response_box.jpg,1,2,0,0,1578
Flanker,2,100,B2,Even,congruent_right.jpg,1,congruent_right,congruent,congruent,right,switch,repeat,~left_response_box.jpg,~right_response_box.jpg,2,1,0,0,1063
Stroop,2,2,B1,Even,incongruent_orange_blue.jpg,2,incongruent_orange_blue,congruent,incongruent,right,repeat,switch,~red_green_responsebox.jpg,~blue_orange_responsebox.jpg,2,1,0,0,2343
Stroop,2,3,B1,Odd,incongruent_orange_red.jpg,2,incongruent_orange_red,incongruent,incongruent,right,repeat,repeat,~red_green_responsebox.jpg,~blue_orange_responsebox.jpg,2,1,0,0,1422
Stroop,2,4,B1,Even,incongruent_blue_orange.jpg,999,incongruent_blue_orange,incongruent,incongruent,right,repeat,repeat,~red_green_responsebox.jpg,~blue_orange_responsebox.jpg,1,1,1,0,1328
Stroop,2,5,B1,Odd,congruent_orange.jpg,1,congruent_orange,incongruent,congruent,right,repeat,switch,~red_green_responsebox.jpg,~blue_orange_responsebox.jpg,2,1,0,1,1062
Stroop,2,6,B1,Even,incongruent_green_orange.jpg,2,incongruent_green_orange,congruent,incongruent,left,switch,switch,~red_green_responsebox.jpg,~blue_orange_responsebox.jpg,1,2,0,0,1406
Stroop,2,7,B1,Odd,congruent_green.jpg,1,congruent_green,incongruent,congruent,left,repeat,switch,~red_green_responsebox.jpg,~blue_orange_responsebox.jpg,1,2,0,0,859
Stroop,2,8,B1,Even,incongruent_blue_green.jpg,2,incongruent_blue_green,congruent,incongruent,right,switch,switch,~red_green_responsebox.jpg,~blue_orange_responsebox.jpg,2,1,0,0,1609
Stroop,2,9,B1,Odd,incongruent_green_orange.jpg,2,incongruent_green_orange,incongruent,incongruent,left,switch,repeat,~red_green_responsebox.jpg,~blue_orange_responsebox.jpg,1,2,0,0,1531
Stroop,2,10,B1,Even,congruent_orange.jpg,1,congruent_orange,incongruent,congruent,right,switch,switch,~red_green_responsebox.jpg,~blue_orange_responsebox.jpg,2,1,0,0,1078
Stroop,2,11,B1,Odd,incongruent_blue_red.jpg,2,incongruent_blue_red,congruent,incongruent,right,repeat,switch,~red_green_responsebox.jpg,~blue_orange_responsebox.jpg,2,1,0,0,2390
Stroop,2,12,B1,Even,congruent_blue.jpg,1,congruent_blue,incongruent,congruent,right,repeat,switch,~red_green_responsebox.jpg,~blue_orange_responsebox.jpg,2,1,0,0,1172
Stroop,2,13,B1,Odd,congruent_orange.jpg,1,congruent_orange,congruent,congruent,right,repeat,repeat,~red_green_responsebox.jpg,~blue_orange_responsebox.jpg,2,1,0,0,968
Stroop,2,14,B1,Even,incongruent_red_orange.jpg,2,incongruent_red_orange,congruent,incongruent,left,switch,switch,~red_green_responsebox.jpg,~blue_orange_responsebox.jpg,1,2,0,0,1062
Stroop,2,15,B1,Odd,congruent_blue.jpg,1,congruent_blue,incongruent,congruent,right,switch,switch,~red_green_responsebox.jpg,~blue_orange_responsebox.jpg,2,1,0,0,1422
Stroop,2,16,B1,Even,congruent_blue.jpg,1,congruent_blue,congruent,congruent,right,repeat,repeat,~red_green_responsebox.jpg,~blue_orange_responsebox.jpg,2,1,0,0,844
Stroop,2,17,B1,Odd,incongruent_blue_red.jpg,999,incongruent_blue_red,congruent,incongruent,right,repeat,switch,~red_green_responsebox.jpg,~blue_orange_responsebox.jpg,1,1,1,0,1406
Stroop,2,18,B1,Even,incongruent_orange_blue.jpg,2,incongruent_orange_blue,incongruent,incongruent,right,repeat,repeat,~red_green_responsebox.jpg,~blue_orange_responsebox.jpg,2,1,0,1,984
Stroop,2,19,B1,Odd,congruent_orange.jpg,1,congruent_orange,incongruent,congruent,right,repeat,switch,~red_green_responsebox.jpg,~blue_orange_responsebox.jpg,2,1,0,0,875
Stroop,2,20,B1,Even,congruent_red.jpg,1,congruent_red,congruent,congruent,left,switch,repeat,~red_green_responsebox.jpg,~blue_orange_responsebox.jpg,1,2,0,0,1016
Stroop,2,21,B1,Odd,congruent_green.jpg,1,congruent_green,congruent,congruent,left,repeat,repeat,~red_green_responsebox.jpg,~blue_orange_responsebox.jpg,1,2,0,0,907
Stroop,2,22,B1,Even,incongruent_red_blue.jpg,2,incongruent_red_blue,congruent,incongruent,left,repeat,switch,~red_green_responsebox.jpg,~blue_orange_responsebox.jpg,1,2,0,0,1656
Stroop,2,23,B1,Odd,incongruent_red_orange.jpg,2,incongruent_red_orange,incongruent,incongruent,left,repeat,repeat,~red_green_responsebox.jpg,~blue_orange_responsebox.jpg,1,2,0,0,1546
Stroop,2,24,B1,Even,incongruent_green_blue.jpg,2,incongruent_green_blue,incongruent,incongruent,left,repeat,repeat,~red_green_responsebox.jpg,~blue_orange_responsebox.jpg,1,2,0,0,1609
Stroop,2,25,B1,Odd,incongruent_orange_green.jpg,2,incongruent_orange_green,incongruent,incongruent,right,switch,repeat,~red_green_responsebox.jpg,~blue_orange_responsebox.jpg,2,1,0,0,1359
Stroop,2,27,B1,Odd,congruent_red.jpg,1,congruent_red,incongruent,congruent,left,switch,switch,~red_green_responsebox.jpg,~blue_orange_responsebox.jpg,1,2,0,0,1343
Stroop,2,28,B1,Even,incongruent_orange_green.jpg,2,incongruent_orange_green,congruent,incongruent,right,switch,switch,~red_green_responsebox.jpg,~blue_orange_responsebox.jpg,2,1,0,0,1188
Stroop,2,29,B1,Odd,congruent_red.jpg,1,congruent_red,incongruent,congruent,left,switch,switch,~red_green_responsebox.jpg,~blue_orange_responsebox.jpg,1,2,0,0,937
Stroop,2,30,B1,Even,incongruent_red_orange.jpg,2,incongruent_red_orange,congruent,incongruent,left,repeat,switch,~red_green_responsebox.jpg,~blue_orange_responsebox.jpg,1,2,0,0,1109
Stroop,2,31,B1,Odd,congruent_orange.jpg,1,congruent_orange,incongruent,congruent,right,switch,switch,~red_green_responsebox.jpg,~blue_orange_responsebox.jpg,2,1,0,0,1141
Stroop,2,32,B1,Even,congruent_blue.jpg,1,congruent_blue,congruent,congruent,right,repeat,repeat,~red_green_responsebox.jpg,~blue_orange_responsebox.jpg,2,1,0,0,1063
Stroop,2,33,B1,Odd,incongruent_red_green.jpg,2,incongruent_red_green,congruent,incongruent,left,switch,switch,~red_green_responsebox.jpg,~blue_orange_responsebox.jpg,1,2,0,0,1843
Stroop,2,34,B1,Even,incongruent_blue_green.jpg,2,incongruent_blue_green,incongruent,incongruent,right,switch,repeat,~red_green_responsebox.jpg,~blue_orange_responsebox.jpg,2,1,0,0,1562
Stroop,2,35,B1,Odd,incongruent_red_green.jpg,2,incongruent_red_green,incongruent,incongruent,left,switch,repeat,~red_green_responsebox.jpg,~blue_orange_responsebox.jpg,1,2,0,0,1109
Stroop,2,36,B1,Even,incongruent_red_blue.jpg,2,incongruent_red_blue,incongruent,incongruent,left,repeat,repeat,~red_green_responsebox.jpg,~blue_orange_responsebox.jpg,1,2,0,0,1391
Stroop,2,37,B1,Odd,congruent_red.jpg,1,congruent_red,incongruent,congruent,left,repeat,switch,~red_green_responsebox.jpg,~blue_orange_responsebox.jpg,1,2,0,0,937
Stroop,2,38,B1,Even,congruent_orange.jpg,1,congruent_orange,congruent,congruent,right,switch,repeat,~red_green_responsebox.jpg,~blue_orange_responsebox.jpg,2,1,0,0,1125
Stroop,2,39,B1,Odd,congruent_green.jpg,1,congruent_green,congruent,congruent,left,switch,repeat,~red_green_responsebox.jpg,~blue_orange_responsebox.jpg,1,2,0,0,1468
Stroop,2,40,B1,Even,incongruent_orange_red.jpg,2,incongruent_orange_red,congruent,incongruent,right,switch,switch,~red_green_responsebox.jpg,~blue_orange_responsebox.jpg,2,1,0,0,1203
Stroop,2,41,B1,Odd,incongruent_green_red.jpg,2,incongruent_green_red,incongruent,incongruent,left,switch,repeat,~red_green_responsebox.jpg,~blue_orange_responsebox.jpg,1,2,0,0,1469
Stroop,2,42,B1,Even,congruent_orange.jpg,1,congruent_orange,incongruent,congruent,right,switch,switch,~red_green_responsebox.jpg,~blue_orange_responsebox.jpg,2,1,0,0,1031
Stroop,2,43,B1,Odd,incongruent_orange_green.jpg,2,incongruent_orange_green,congruent,incongruent,right,repeat,switch,~red_green_responsebox.jpg,~blue_orange_responsebox.jpg,2,1,0,0,1718
Stroop,2,44,B1,Even,incongruent_red_orange.jpg,2,incongruent_red_orange,incongruent,incongruent,left,switch,repeat,~red_green_responsebox.jpg,~blue_orange_responsebox.jpg,1,2,0,0,1313
Stroop,2,45,B1,Odd,congruent_red.jpg,1,congruent_red,incongruent,congruent,left,repeat,switch,~red_green_responsebox.jpg,~blue_orange_responsebox.jpg,1,2,0,0,875
Stroop,2,46,B1,Even,congruent_green.jpg,1,congruent_green,congruent,congruent,left,repeat,repeat,~red_green_responsebox.jpg,~blue_orange_responsebox.jpg,1,2,0,0,984
Stroop,2,47,B1,Odd,incongruent_green_red.jpg,2,incongruent_green_red,congruent,incongruent,left,repeat,switch,~red_green_responsebox.jpg,~blue_orange_responsebox.jpg,1,2,0,0,1250
Stroop,2,48,B1,Even,congruent_green.jpg,1,congruent_green,incongruent,congruent,left,repeat,switch,~red_green_responsebox.jpg,~blue_orange_responsebox.jpg,1,2,0,0,890
Stroop,2,49,B1,Odd,congruent_green.jpg,1,congruent_green,congruent,congruent,left,repeat,repeat,~red_green_responsebox.jpg,~blue_orange_responsebox.jpg,1,2,0,0,797
Stroop,2,50,B1,Even,incongruent_green_blue.jpg,2,incongruent_green_blue,congruent,incongruent,left,repeat,switch,~red_green_responsebox.jpg,~blue_orange_responsebox.jpg,1,2,0,0,1422
Stroop,2,52,B2,Even,congruent_blue.jpg,1,congruent_blue,incongruent,congruent,right,switch,switch,~red_green_responsebox.jpg,~blue_orange_responsebox.jpg,2,1,0,0,1187
Stroop,2,53,B2,Odd,incongruent_blue_red.jpg,2,incongruent_blue_red,congruent,incongruent,right,repeat,switch,~red_green_responsebox.jpg,~blue_orange_responsebox.jpg,2,1,0,0,1452
Stroop,2,54,B2,Even,congruent_orange.jpg,1,congruent_orange,incongruent,congruent,right,repeat,switch,~red_green_responsebox.jpg,~blue_orange_responsebox.jpg,2,1,0,0,984
Stroop,2,55,B2,Odd,incongruent_orange_blue.jpg,2,incongruent_orange_blue,congruent,incongruent,right,repeat,switch,~red_green_responsebox.jpg,~blue_orange_responsebox.jpg,2,1,0,0,1062
Stroop,2,56,B2,Even,congruent_red.jpg,1,congruent_red,incongruent,congruent,left,switch,switch,~red_green_responsebox.jpg,~blue_orange_responsebox.jpg,1,2,0,0,968
Stroop,2,57,B2,Odd,congruent_green.jpg,1,congruent_green,congruent,congruent,left,repeat,repeat,~red_green_responsebox.jpg,~blue_orange_responsebox.jpg,1,2,0,0,1282
Stroop,2,58,B2,Even,incongruent_red_green.jpg,2,incongruent_red_green,congruent,incongruent,left,repeat,switch,~red_green_responsebox.jpg,~blue_orange_responsebox.jpg,1,2,0,0,1031
Stroop,2,59,B2,Odd,congruent_blue.jpg,1,congruent_blue,incongruent,congruent,right,switch,switch,~red_green_responsebox.jpg,~blue_orange_responsebox.jpg,2,1,0,0,952
Stroop,2,60,B2,Even,congruent_red.jpg,1,congruent_red,congruent,congruent,left,switch,repeat,~red_green_responsebox.jpg,~blue_orange_responsebox.jpg,1,2,0,0,1140
Stroop,2,61,B2,Odd,congruent_blue.jpg,1,congruent_blue,congruent,congruent,right,switch,repeat,~red_green_responsebox.jpg,~blue_orange_responsebox.jpg,2,1,0,0,844
Stroop,2,62,B2,Even,incongruent_blue_green.jpg,2,incongruent_blue_green,congruent,incongruent,right,repeat,switch,~red_green_responsebox.jpg,~blue_orange_responsebox.jpg,2,1,0,0,1688
Stroop,2,63,B2,Odd,congruent_green.jpg,1,congruent_green,incongruent,congruent,left,switch,switch,~red_green_responsebox.jpg,~blue_orange_responsebox.jpg,1,2,0,0,844
Stroop,2,64,B2,Even,incongruent_green_blue.jpg,2,incongruent_green_blue,congruent,incongruent,left,repeat,switch,~red_green_responsebox.jpg,~blue_orange_responsebox.jpg,1,2,0,0,1797
Stroop,2,65,B2,Odd,incongruent_green_red.jpg,2,incongruent_green_red,incongruent,incongruent,left,repeat,repeat,~red_green_responsebox.jpg,~blue_orange_responsebox.jpg,1,2,0,0,1187
Stroop,2,66,B2,Even,congruent_green.jpg,1,congruent_green,incongruent,congruent,left,repeat,switch,~red_green_responsebox.jpg,~blue_orange_responsebox.jpg,1,2,0,0,1328
Stroop,2,67,B2,Odd,incongruent_green_orange.jpg,2,incongruent_green_orange,congruent,incongruent,left,repeat,switch,~red_green_responsebox.jpg,~blue_orange_responsebox.jpg,1,2,0,0,1625
Stroop,2,68,B2,Even,congruent_orange.jpg,1,congruent_orange,incongruent,congruent,right,switch,switch,~red_green_responsebox.jpg,~blue_orange_responsebox.jpg,2,1,0,0,844
Stroop,2,69,B2,Odd,incongruent_orange_red.jpg,2,incongruent_orange_red,congruent,incongruent,right,repeat,switch,~red_green_responsebox.jpg,~blue_orange_responsebox.jpg,2,1,0,0,1375
Stroop,2,70,B2,Even,congruent_orange.jpg,1,congruent_orange,incongruent,congruent,right,repeat,switch,~red_green_responsebox.jpg,~blue_orange_responsebox.jpg,2,1,0,0,922
Stroop,2,71,B2,Odd,incongruent_green_orange.jpg,2,incongruent_green_orange,congruent,incongruent,left,switch,switch,~red_green_responsebox.jpg,~blue_orange_responsebox.jpg,1,2,0,0,1125
Stroop,2,72,B2,Even,congruent_red.jpg,1,congruent_red,incongruent,congruent,left,repeat,switch,~red_green_responsebox.jpg,~blue_orange_responsebox.jpg,1,2,0,0,922
Stroop,2,73,B2,Odd,congruent_red.jpg,1,congruent_red,congruent,congruent,left,repeat,repeat,~red_green_responsebox.jpg,~blue_orange_responsebox.jpg,1,2,0,0,828
Stroop,2,74,B2,Even,incongruent_orange_blue.jpg,2,incongruent_orange_blue,congruent,incongruent,right,switch,switch,~red_green_responsebox.jpg,~blue_orange_responsebox.jpg,2,1,0,0,1078
Stroop,2,75,B2,Odd,congruent_green.jpg,1,congruent_green,incongruent,congruent,left,switch,switch,~red_green_responsebox.jpg,~blue_orange_responsebox.jpg,1,2,0,0,1156
Stroop,2,77,B2,Odd,congruent_blue.jpg,1,congruent_blue,congruent,congruent,right,switch,repeat,~red_green_responsebox.jpg,~blue_orange_responsebox.jpg,2,1,0,0,969
Stroop,2,78,B2,Even,congruent_orange.jpg,1,congruent_orange,congruent,congruent,right,repeat,repeat,~red_green_responsebox.jpg,~blue_orange_responsebox.jpg,2,1,0,0,1109
Stroop,2,79,B2,Odd,incongruent_orange_green.jpg,2,incongruent_orange_green,congruent,incongruent,right,repeat,switch,~red_green_responsebox.jpg,~blue_orange_responsebox.jpg,2,1,0,0,1703
Stroop,2,80,B2,Even,congruent_green.jpg,1,congruent_green,incongruent,congruent,left,switch,switch,~red_green_responsebox.jpg,~blue_orange_responsebox.jpg,1,2,0,0,1047
Stroop,2,81,B2,Odd,incongruent_orange_red.jpg,2,incongruent_orange_red,congruent,incongruent,right,switch,switch,~red_green_responsebox.jpg,~blue_orange_responsebox.jpg,2,1,0,0,1000
Stroop,2,82,B2,Even,incongruent_blue_red.jpg,2,incongruent_blue_red,incongruent,incongruent,right,repeat,repeat,~red_green_responsebox.jpg,~blue_orange_responsebox.jpg,2,1,0,0,1796
Stroop,2,83,B2,Odd,incongruent_red_green.jpg,2,incongruent_red_green,incongruent,incongruent,left,switch,repeat,~red_green_responsebox.jpg,~blue_orange_responsebox.jpg,1,2,0,0,1359
Stroop,2,84,B2,Even,incongruent_red_blue.jpg,2,incongruent_red_blue,incongruent,incongruent,left,repeat,repeat,~red_green_responsebox.jpg,~blue_orange_responsebox.jpg,1,2,0,0,1546
Stroop,2,85,B2,Odd,incongruent_blue_orange.jpg,2,incongruent_blue_orange,incongruent,incongruent,right,switch,repeat,~red_green_responsebox.jpg,~blue_orange_responsebox.jpg,2,1,0,0,1360
Stroop,2,86,B2,Even,incongruent_green_blue.jpg,2,incongruent_green_blue,incongruent,incongruent,left,switch,repeat,~red_green_responsebox.jpg,~blue_orange_responsebox.jpg,1,2,0,0,1625
Stroop,2,87,B2,Odd,congruent_red.jpg,1,congruent_red,incongruent,congruent,left,repeat,switch,~red_green_responsebox.jpg,~blue_orange_responsebox.jpg,1,2,0,0,969
Stroop,2,88,B2,Even,congruent_orange.jpg,1,congruent_orange,congruent,congruent,right,switch,repeat,~red_green_responsebox.jpg,~blue_orange_responsebox.jpg,2,1,0,0,1110
Stroop,2,89,B2,Odd,congruent_blue.jpg,1,congruent_blue,congruent,congruent,right,repeat,repeat,~red_green_responsebox.jpg,~blue_orange_responsebox.jpg,2,1,0,0,1078
Stroop,2,90,B2,Even,congruent_red.jpg,1,congruent_red,congruent,congruent,left,switch,repeat,~red_green_responsebox.jpg,~blue_orange_responsebox.jpg,1,2,0,0,891
Stroop,2,91,B2,Odd,congruent_green.jpg,1,congruent_green,congruent,congruent,left,repeat,repeat,~red_green_responsebox.jpg,~blue_orange_responsebox.jpg,1,2,0,0,984
Stroop,2,92,B2,Even,incongruent_red_blue.jpg,2,incongruent_red_blue,congruent,incongruent,left,repeat,switch,~red_green_responsebox.jpg,~blue_orange_responsebox.jpg,1,2,0,0,1765
Stroop,2,93,B2,Odd,incongruent_blue_orange.jpg,2,incongruent_blue_orange,incongruent,incongruent,right,switch,repeat,~red_green_responsebox.jpg,~blue_orange_responsebox.jpg,2,1,0,0,1015
Stroop,2,94,B2,Even,congruent_red.jpg,1,congruent_red,incongruent,congruent,left,switch,switch,~red_green_responsebox.jpg,~blue_orange_responsebox.jpg,1,2,0,0,1546
Stroop,2,95,B2,Odd,congruent_blue.jpg,1,congruent_blue,congruent,congruent,right,switch,repeat,~red_green_responsebox.jpg,~blue_orange_responsebox.jpg,2,1,0,0,1109
Stroop,2,96,B2,Even,incongruent_blue_green.jpg,2,incongruent_blue_green,congruent,incongruent,right,repeat,switch,~red_green_responsebox.jpg,~blue_orange_responsebox.jpg,2,1,0,0,1812
Stroop,2,97,B2,Odd,congruent_blue.jpg,1,congruent_blue,incongruent,congruent,right,repeat,switch,~red_green_responsebox.jpg,~blue_orange_responsebox.jpg,2,1,0,0,1296
Stroop,2,98,B2,Even,incongruent_green_red.jpg,2,incongruent_green_red,congruent,incongruent,left,switch,switch,~red_green_responsebox.jpg,~blue_orange_responsebox.jpg,1,2,0,0,1687
Stroop,2,99,B2,Odd,incongruent_blue_orange.jpg,2,incongruent_blue_orange,incongruent,incongruent,right,switch,repeat,~red_green_responsebox.jpg,~blue_orange_responsebox.jpg,2,1,0,0,1015
Stroop,2,100,B2,Even,congruent_blue.jpg,1,congruent_blue,incongruent,congruent,right,repeat,switch,~red_green_responsebox.jpg,~blue_orange_responsebox.jpg,2,1,0,0,890
Flanker,3,2,B1,Even,incongruent_right.jpg,2,incongruent_right,congruent,incongruent,right,repeat,switch,~left_response_box.jpg,~right_response_box.jpg,2,1,0,0,2280
Flanker,3,3,B1,Odd,congruent_right.jpg,1,congruent_right,incongruent,congruent,right,repeat,switch,~left_response_box.jpg,~right_response_box.jpg,2,1,0,0,890
Flanker,3,4,B1,Even,congruent_right.jpg,1,congruent_right,congruent,congruent,right,repeat,repeat,~left_response_box.jpg,~right_response_box.jpg,2,1,0,0,750
Flanker,3,5,B1,Odd,incongruent_right.jpg,2,incongruent_right,congruent,incongruent,right,repeat,switch,~left_response_box.jpg,~right_response_box.jpg,2,1,0,0,1343
Flanker,3,6,B1,Even,incongruent_left.jpg,2,incongruent_left,incongruent,incongruent,left,switch,repeat,~left_response_box.jpg,~right_response_box.jpg,1,2,0,0,1094
Flanker,3,7,B1,Odd,incongruent_right.jpg,2,incongruent_right,incongruent,incongruent,right,switch,repeat,~left_response_box.jpg,~right_response_box.jpg,2,1,0,0,1140
Flanker,3,8,B1,Even,congruent_left.jpg,1,congruent_left,incongruent,congruent,left,switch,switch,~left_response_box.jpg,~right_response_box.jpg,1,2,0,0,858
Flanker,3,9,B1,Odd,congruent_right.jpg,1,congruent_right,congruent,congruent,right,switch,repeat,~left_response_box.jpg,~right_response_box.jpg,2,1,0,0,765
Flanker,3,10,B1,Even,incongruent_right.jpg,2,incongruent_right,congruent,incongruent,right,repeat,switch,~left_response_box.jpg,~right_response_box.jpg,2,1,0,0,1110
Flanker,3,11,B1,Odd,congruent_right.jpg,1,congruent_right,incongruent,congruent,right,repeat,switch,~left_response_box.jpg,~right_response_box.jpg,2,1,0,0,719
Flanker,3,12,B1,Even,congruent_left.jpg,1,congruent_left,congruent,congruent,left,switch,repeat,~left_response_box.jpg,~right_response_box.jpg,1,2,0,0,735
Flanker,3,13,B1,Odd,congruent_right.jpg,1,congruent_right,congruent,congruent,right,switch,repeat,~left_response_box.jpg,~right_response_box.jpg,2,1,0,0,812
Flanker,3,14,B1,Even,incongruent_right.jpg,2,incongruent_right,congruent,incongruent,right,repeat,switch,~left_response_box.jpg,~right_response_box.jpg,2,1,0,0,969
Flanker,3,15,B1,Odd,incongruent_left.jpg,2,incongruent_left,incongruent,incongruent,left,switch,repeat,~left_response_box.jpg,~right_response_box.jpg,1,2,0,0,1171
Flanker,3,16,B1,Even,incongruent_left.jpg,2,incongruent_left,incongruent,incongruent,left,repeat,repeat,~left_response_box.jpg,~right_response_box.jpg,1,2,0,0,1124
Flanker,3,17,B1,Odd,congruent_right.jpg,1,congruent_right,incongruent,congruent,right,switch,switch,~left_response_box.jpg,~right_response_box.jpg,2,1,0,0,828
Flanker,3,18,B1,Even,incongruent_left.jpg,2,incongruent_left,congruent,incongruent,left,switch,switch,~left_response_box.jpg,~right_response_box.jpg,1,2,0,0,734
Flanker,3,19,B1,Odd,incongruent_right.jpg,2,incongruent_right,incongruent,incongruent,right,switch,repeat,~left_response_box.jpg,~right_response_box.jpg,2,1,0,0,781
Flanker,3,20,B1,Even,incongruent_left.jpg,2,incongruent_left,incongruent,incongruent,left,switch,repeat,~left_response_box.jpg,~right_response_box.jpg,1,2,0,0,937
Flanker,3,21,B1,Odd,congruent_left.jpg,1,congruent_left,incongruent,congruent,left,repeat,switch,~left_response_box.jpg,~right_response_box.jpg,1,2,0,0,750
Flanker,3,22,B1,Even,incongruent_left.jpg,2,incongruent_left,congruent,incongruent,left,repeat,switch,~left_response_box.jpg,~right_response_box.jpg,1,2,0,0,999
Flanker,3,23,B1,Odd,congruent_right.jpg,1,congruent_right,incongruent,congruent,right,switch,switch,~left_response_box.jpg,~right_response_box.jpg,2,1,0,0,921
Flanker,3,24,B1,Even,incongruent_left.jpg,2,incongruent_left,congruent,incongruent,left,switch,switch,~left_response_box.jpg,~right_response_box.jpg,1,2,0,0,921
Flanker,3,25,B1,Odd,incongruent_right.jpg,2,incongruent_right,incongruent,incongruent,right,switch,repeat,~left_response_box.jpg,~right_response_box.jpg,2,1,0,0,875
Flanker,3,27,B1,Odd,congruent_left.jpg,1,congruent_left,incongruent,congruent,left,switch,switch,~left_response_box.jpg,~right_response_box.jpg,1,2,0,0,766
Flanker,3,28,B1,Even,congruent_left.jpg,1,congruent_left,congruent,congruent,left,repeat,repeat,~left_response_box.jpg,~right_response_box.jpg,1,2,0,0,969
Flanker,3,29,B1,Odd,incongruent_left.jpg,2,incongruent_left,congruent,incongruent,left,repeat,switch,~left_response_box.jpg,~right_response_box.jpg,1,2,0,0,812
Flanker,3,30,B1,Even,congruent_right.jpg,1,congruent_right,incongruent,congruent,right,switch,switch,~left_response_box.jpg,~right_response_box.jpg,2,1,0,0,781
Flanker,3,31,B1,Odd,congruent_left.jpg,1,congruent_left,congruent,congruent,left,switch,repeat,~left_response_box.jpg,~right_response_box.jpg,1,2,0,0,813
Flanker,3,32,B1,Even,incongruent_left.jpg,2,incongruent_left,congruent,incongruent,left,repeat,switch,~left_response_box.jpg,~right_response_box.jpg,1,2,0,0,921
Flanker,3,33,B1,Odd,incongruent_right.jpg,2,incongruent_right,incongruent,incongruent,right,switch,repeat,~left_response_box.jpg,~right_response_box.jpg,2,1,0,0,1140
Flanker,3,34,B1,Even,congruent_left.jpg,1,congruent_left,incongruent,congruent,left,switch,switch,~left_response_box.jpg,~right_response_box.jpg,1,2,0,0,750
Flanker,3,35,B1,Odd,incongruent_left.jpg,2,incongruent_left,congruent,incongruent,left,repeat,switch,~left_response_box.jpg,~right_response_box.jpg,1,2,0,0,1031
Flanker,3,36,B1,Even,incongruent_right.jpg,2,incongruent_right,incongruent,incongruent,right,switch,repeat,~left_response_box.jpg,~right_response_box.jpg,2,1,0,0,890
Flanker,3,37,B1,Odd,incongruent_left.jpg,2,incongruent_left,incongruent,incongruent,left,switch,repeat,~left_response_box.jpg,~right_response_box.jpg,1,2,0,0,969
Flanker,3,38,B1,Even,incongruent_right.jpg,2,incongruent_right,incongruent,incongruent,right,switch,repeat,~left_response_box.jpg,~right_response_box.jpg,2,1,0,0,906
Flanker,3,39,B1,Odd,congruent_right.jpg,1,congruent_right,incongruent,congruent,right,repeat,switch,~left_response_box.jpg,~right_response_box.jpg,2,1,0,0,875
Flanker,3,40,B1,Even,congruent_right.jpg,1,congruent_right,congruent,congruent,right,repeat,repeat,~left_response_box.jpg,~right_response_box.jpg,2,1,0,0,719
Flanker,3,41,B1,Odd,incongruent_right.jpg,2,incongruent_right,congruent,incongruent,right,repeat,switch,~left_response_box.jpg,~right_response_box.jpg,2,1,0,0,984
Flanker,3,42,B1,Even,incongruent_left.jpg,2,incongruent_left,incongruent,incongruent,left,switch,repeat,~left_response_box.jpg,~right_response_box.jpg,1,2,0,0,813
Flanker,3,43,B1,Odd,incongruent_right.jpg,2,incongruent_right,incongruent,incongruent,right,switch,repeat,~left_response_box.jpg,~right_response_box.jpg,2,1,0,0,874
Flanker,3,44,B1,Even,incongruent_right.jpg,2,incongruent_right,incongruent,incongruent,right,repeat,repeat,~left_response_box.jpg,~right_response_box.jpg,2,1,0,0,921
Flanker,3,45,B1,Odd,congruent_left.jpg,1,congruent_left,incongruent,congruent,left,switch,switch,~left_response_box.jpg,~right_response_box.jpg,1,2,0,0,750
Flanker,3,46,B1,Even,incongruent_left.jpg,2,incongruent_left,congruent,incongruent,left,repeat,switch,~left_response_box.jpg,~right_response_box.jpg,1,2,0,0,843
Flanker,3,47,B1,Odd,incongruent_left.jpg,2,incongruent_left,incongruent,incongruent,left,repeat,repeat,~left_response_box.jpg,~right_response_box.jpg,1,2,0,0,844
Flanker,3,48,B1,Even,congruent_right.jpg,1,congruent_right,incongruent,congruent,right,switch,switch,~left_response_box.jpg,~right_response_box.jpg,2,1,0,0,750
Flanker,3,49,B1,Odd,congruent_left.jpg,1,congruent_left,congruent,congruent,left,switch,repeat,~left_response_box.jpg,~right_response_box.jpg,1,2,0,0,750
Flanker,3,50,B1,Even,congruent_left.jpg,1,congruent_left,congruent,congruent,left,repeat,repeat,~left_response_box.jpg,~right_response_box.jpg,1,2,0,0,703
Flanker,3,52,B2,Even,congruent_left.jpg,1,congruent_left,congruent,congruent,left,repeat,repeat,~left_response_box.jpg,~right_response_box.jpg,1,2,0,0,625
Flanker,3,53,B2,Odd,incongruent_right.jpg,2,incongruent_right,congruent,incongruent,right,switch,switch,~left_response_box.jpg,~right_response_box.jpg,2,1,0,0,796
Flanker,3,54,B2,Even,incongruent_right.jpg,2,incongruent_right,incongruent,incongruent,right,repeat,repeat,~left_response_box.jpg,~right_response_box.jpg,2,1,0,0,828
Flanker,3,55,B2,Odd,congruent_right.jpg,1,congruent_right,incongruent,congruent,right,repeat,switch,~left_response_box.jpg,~right_response_box.jpg,2,1,0,0,859
Flanker,3,56,B2,Even,congruent_right.jpg,1,congruent_right,congruent,congruent,right,repeat,repeat,~left_response_box.jpg,~right_response_box.jpg,2,1,0,0,1171
Flanker,3,57,B2,Odd,incongruent_left.jpg,2,incongruent_left,congruent,incongruent,left,switch,switch,~left_response_box.jpg,~right_response_box.jpg,1,2,0,0,828
Flanker,3,58,B2,Even,congruent_left.jpg,1,congruent_left,incongruent,congruent,left,repeat,switch,~left_response_box.jpg,~right_response_box.jpg,1,2,0,0,672
Flanker,3,59,B2,Odd,congruent_right.jpg,1,congruent_right,congruent,congruent,right,switch,repeat,~left_response_box.jpg,~right_response_box.jpg,2,1,0,0,890
Flanker,3,60,B2,Even,incongruent_right.jpg,2,incongruent_right,congruent,incongruent,right,repeat,switch,~left_response_box.jpg,~right_response_box.jpg,2,1,0,0,828
Flanker,3,61,B2,Odd,incongruent_left.jpg,2,incongruent_left,incongruent,incongruent,left,switch,repeat,~left_response_box.jpg,~right_response_box.jpg,1,2,0,0,938
Flanker,3,62,B2,Even,incongruent_right.jpg,2,incongruent_right,incongruent,incongruent,right,switch,repeat,~left_response_box.jpg,~right_response_box.jpg,2,1,0,0,968
Flanker,3,63,B2,Odd,congruent_left.jpg,1,congruent_left,incongruent,congruent,left,switch,switch,~left_response_box.jpg,~right_response_box.jpg,1,2,0,0,860
Flanker,3,64,B2,Even,congruent_left.jpg,1,congruent_left,congruent,congruent,left,repeat,repeat,~left_response_box.jpg,~right_response_box.jpg,1,2,0,0,704
Flanker,3,65,B2,Odd,incongruent_right.jpg,2,incongruent_right,congruent,incongruent,right,switch,switch,~left_response_box.jpg,~right_response_box.jpg,2,1,0,0,1015
Flanker,3,66,B2,Even,incongruent_right.jpg,2,incongruent_right,incongruent,incongruent,right,repeat,repeat,~left_response_box.jpg,~right_response_box.jpg,2,1,0,0,1094
Flanker,3,67,B2,Odd,incongruent_right.jpg,2,incongruent_right,incongruent,incongruent,right,repeat,repeat,~left_response_box.jpg,~right_response_box.jpg,2,1,0,0,860
Flanker,3,68,B2,Even,incongruent_left.jpg,2,incongruent_left,incongruent,incongruent,left,switch,repeat,~left_response_box.jpg,~right_response_box.jpg,1,2,0,0,969
Flanker,3,69,B2,Odd,congruent_left.jpg,1,congruent_left,incongruent,congruent,left,repeat,switch,~left_response_box.jpg,~right_response_box.jpg,1,2,0,0,766
Flanker,3,70,B2,Even,congruent_left.jpg,1,congruent_left,congruent,congruent,left,repeat,repeat,~left_response_box.jpg,~right_response_box.jpg,1,2,0,0,672
Flanker,3,71,B2,Odd,congruent_right.jpg,1,congruent_right,congruent,congruent,right,switch,repeat,~left_response_box.jpg,~right_response_box.jpg,2,1,0,0,953
Flanker,3,72,B2,Even,incongruent_right.jpg,2,incongruent_right,congruent,incongruent,right,repeat,switch,~left_response_box.jpg,~right_response_box.jpg,2,1,0,0,1032
Flanker,3,73,B2,Odd,congruent_right.jpg,1,congruent_right,incongruent,congruent,right,repeat,switch,~left_response_box.jpg,~right_response_box.jpg,2,1,0,0,922
Flanker,3,74,B2,Even,congruent_right.jpg,1,congruent_right,congruent,congruent,right,repeat,repeat,~left_response_box.jpg,~right_response_box.jpg,2,1,0,0,719
Flanker,3,75,B2,Odd,congruent_right.jpg,1,congruent_right,congruent,congruent,right,repeat,repeat,~left_response_box.jpg,~right_response_box.jpg,2,1,0,0,781
Flanker,3,77,B2,Odd,congruent_right.jpg,1,congruent_right,congruent,congruent,right,repeat,repeat,~left_response_box.jpg,~right_response_box.jpg,2,1,0,0,751
Flanker,3,78,B2,Even,incongruent_left.jpg,2,incongruent_left,congruent,incongruent,left,switch,switch,~left_response_box.jpg,~right_response_box.jpg,1,2,0,0,828
Flanker,3,79,B2,Odd,congruent_left.jpg,1,congruent_left,incongruent,congruent,left,repeat,switch,~left_response_box.jpg,~right_response_box.jpg,1,2,0,0,578
Flanker,3,80,B2,Even,incongruent_left.jpg,2,incongruent_left,congruent,incongruent,left,repeat,switch,~left_response_box.jpg,~right_response_box.jpg,1,2,0,0,968
Flanker,3,81,B2,Odd,congruent_right.jpg,1,congruent_right,incongruent,congruent,right,switch,switch,~left_response_box.jpg,~right_response_box.jpg,2,1,0,0,672
Flanker,3,82,B2,Even,incongruent_right.jpg,2,incongruent_right,congruent,incongruent,right,repeat,switch,~left_response_box.jpg,~right_response_box.jpg,2,1,0,0,969
Flanker,3,83,B2,Odd,incongruent_left.jpg,2,incongruent_left,incongruent,incongruent,left,switch,repeat,~left_response_box.jpg,~right_response_box.jpg,1,2,0,0,750
Flanker,3,84,B2,Even,incongruent_left.jpg,2,incongruent_left,incongruent,incongruent,left,repeat,repeat,~left_response_box.jpg,~right_response_box.jpg,1,2,0,0,844
Flanker,3,85,B2,Odd,incongruent_left.jpg,2,incongruent_left,incongruent,incongruent,left,repeat,repeat,~left_response_box.jpg,~right_response_box.jpg,1,2,0,0,781
Flanker,3,86,B2,Even,congruent_left.jpg,1,congruent_left,incongruent,congruent,left,repeat,switch,~left_response_box.jpg,~right_response_box.jpg,1,2,0,0,827
Flanker,3,87,B2,Odd,congruent_left.jpg,1,congruent_left,congruent,congruent,left,repeat,repeat,~left_response_box.jpg,~right_response_box.jpg,1,2,0,0,594
Flanker,3,88,B2,Even,incongruent_right.jpg,2,incongruent_right,congruent,incongruent,right,switch,switch,~left_response_box.jpg,~right_response_box.jpg,2,1,0,0,813
Flanker,3,89,B2,Odd,congruent_right.jpg,1,congruent_right,incongruent,congruent,right,repeat,switch,~left_response_box.jpg,~right_response_box.jpg,2,1,0,0,1297
Flanker,3,90,B2,Even,congruent_left.jpg,1,congruent_left,congruent,congruent,left,switch,repeat,~left_response_box.jpg,~right_response_box.jpg,1,2,0,0,703
Flanker,3,91,B2,Odd,congruent_right.jpg,1,congruent_right,congruent,congruent,right,switch,repeat,~left_response_box.jpg,~right_response_box.jpg,2,1,0,0,718
Flanker,3,92,B2,Even,incongruent_left.jpg,2,incongruent_left,congruent,incongruent,left,switch,switch,~left_response_box.jpg,~right_response_box.jpg,1,2,0,0,860
Flanker,3,93,B2,Odd,congruent_left.jpg,1,congruent_left,incongruent,congruent,left,repeat,switch,~left_response_box.jpg,~right_response_box.jpg,1,2,0,0,703
Flanker,3,94,B2,Even,congruent_left.jpg,1,congruent_left,congruent,congruent,left,repeat,repeat,~left_response_box.jpg,~right_response_box.jpg,1,2,0,0,640
Flanker,3,95,B2,Odd,congruent_right.jpg,1,congruent_right,congruent,congruent,right,switch,repeat,~left_response_box.jpg,~right_response_box.jpg,2,1,0,0,656
Flanker,3,96,B2,Even,incongruent_right.jpg,2,incongruent_right,congruent,incongruent,right,repeat,switch,~left_response_box.jpg,~right_response_box.jpg,2,1,0,0,1234
Flanker,3,97,B2,Odd,incongruent_left.jpg,2,incongruent_left,incongruent,incongruent,left,switch,repeat,~left_response_box.jpg,~right_response_box.jpg,1,2,0,0,734
Flanker,3,98,B2,Even,congruent_right.jpg,1,congruent_right,incongruent,congruent,right,switch,switch,~left_response_box.jpg,~right_response_box.jpg,2,1,0,0,719
Flanker,3,99,B2,Odd,congruent_left.jpg,1,congruent_left,congruent,congruent,left,switch,repeat,~left_response_box.jpg,~right_response_box.jpg,1,2,0,0,578
Flanker,3,100,B2,Even,congruent_left.jpg,1,congruent_left,congruent,congruent,left,repeat,repeat,~left_response_box.jpg,~right_response_box.jpg,1,2,0,0,734
Stroop,3,2,B1,Even,incongruent_orange_blue.jpg,2,incongruent_orange_blue,congruent,incongruent,right,switch,switch,~red_green_responsebox.jpg,~blue_orange_responsebox.jpg,2,1,0,0,1437
Stroop,3,3,B1,Odd,incongruent_orange_green.jpg,2,incongruent_orange_green,incongruent,incongruent,right,repeat,repeat,~red_green_responsebox.jpg,~blue_orange_responsebox.jpg,2,1,0,0,1562
Stroop,3,4,B1,Even,incongruent_blue_green.jpg,2,incongruent_blue_green,incongruent,incongruent,right,repeat,repeat,~red_green_responsebox.jpg,~blue_orange_responsebox.jpg,2,1,0,0,1516
Stroop,3,5,B1,Odd,incongruent_red_blue.jpg,2,incongruent_red_blue,incongruent,incongruent,left,switch,repeat,~red_green_responsebox.jpg,~blue_orange_responsebox.jpg,1,2,0,0,1094
Stroop,3,6,B1,Even,congruent_green.jpg,1,congruent_green,incongruent,congruent,left,repeat,switch,~red_green_responsebox.jpg,~blue_orange_responsebox.jpg,1,2,0,0,1515
Stroop,3,7,B1,Odd,incongruent_red_blue.jpg,2,incongruent_red_blue,congruent,incongruent,left,repeat,switch,~red_green_responsebox.jpg,~blue_orange_responsebox.jpg,1,2,0,0,906
Stroop,3,8,B1,Even,incongruent_red_orange.jpg,2,incongruent_red_orange,incongruent,incongruent,left,repeat,repeat,~red_green_responsebox.jpg,~blue_orange_responsebox.jpg,1,2,0,0,890
Stroop,3,9,B1,Odd,incongruent_orange_red.jpg,2,incongruent_orange_red,incongruent,incongruent,right,switch,repeat,~red_green_responsebox.jpg,~blue_orange_responsebox.jpg,2,1,0,0,1453
Stroop,3,10,B1,Even,congruent_red.jpg,999,congruent_red,incongruent,congruent,left,switch,switch,~red_green_responsebox.jpg,~blue_orange_responsebox.jpg,2,2,1,0,1218
Stroop,3,11,B1,Odd,incongruent_green_blue.jpg,2,incongruent_green_blue,congruent,incongruent,left,repeat,switch,~red_green_responsebox.jpg,~blue_orange_responsebox.jpg,1,2,0,1,1187
Stroop,3,12,B1,Even,congruent_blue.jpg,1,congruent_blue,incongruent,congruent,right,switch,switch,~red_green_responsebox.jpg,~blue_orange_responsebox.jpg,2,1,0,0,921
Stroop,3,13,B1,Odd,congruent_orange.jpg,1,congruent_orange,congruent,congruent,right,repeat,repeat,~red_green_responsebox.jpg,~blue_orange_responsebox.jpg,2,1,0,0,1562
Stroop,3,14,B1,Even,congruent_blue.jpg,1,congruent_blue,congruent,congruent,right,repeat,repeat,~red_green_responsebox.jpg,~blue_orange_responsebox.jpg,2,1,0,0,1062
Stroop,3,15,B1,Odd,congruent_red.jpg,1,congruent_red,congruent,congruent,left,switch,repeat,~red_green_responsebox.jpg,~blue_orange_responsebox.jpg,1,2,0,0,672
Stroop,3,16,B1,Even,incongruent_orange_blue.jpg,2,incongruent_orange_blue,congruent,incongruent,right,switch,switch,~red_green_responsebox.jpg,~blue_orange_responsebox.jpg,2,1,0,0,1281
Stroop,3,17,B1,Odd,incongruent_blue_orange.jpg,2,incongruent_blue_orange,incongruent,incongruent,right,repeat,repeat,~red_green_responsebox.jpg,~blue_orange_responsebox.jpg,2,1,0,0,844
Stroop,3,18,B1,Even,congruent_red.jpg,1,congruent_red,incongruent,congruent,left,switch,switch,~red_green_responsebox.jpg,~blue_orange_responsebox.jpg,1,2,0,0,765
Stroop,3,19,B1,Odd,congruent_green.jpg,999,congruent_green,congruent,congruent,left,repeat,repeat,~red_green_responsebox.jpg,~blue_orange_responsebox.jpg,2,2,1,0,782
Stroop,3,20,B1,Even,incongruent_green_blue.jpg,2,incongruent_green_blue,congruent,incongruent,left,repeat,switch,~red_green_responsebox.jpg,~blue_orange_responsebox.jpg,1,2,0,1,1203
Stroop,3,21,B1,Odd,congruent_orange.jpg,1,congruent_orange,incongruent,congruent,right,switch,switch,~red_green_responsebox.jpg,~blue_orange_responsebox.jpg,2,1,0,0,843
Stroop,3,22,B1,Even,incongruent_blue_red.jpg,2,incongruent_blue_red,congruent,incongruent,right,repeat,switch,~red_green_responsebox.jpg,~blue_orange_responsebox.jpg,2,1,0,0,938
Stroop,3,23,B1,Odd,incongruent_orange_green.jpg,2,incongruent_orange_green,incongruent,incongruent,right,repeat,repeat,~red_green_responsebox.jpg,~blue_orange_responsebox.jpg,2,1,0,0,1250
Stroop,3,24,B1,Even,incongruent_orange_blue.jpg,2,incongruent_orange_blue,incongruent,incongruent,right,repeat,repeat,~red_green_responsebox.jpg,~blue_orange_responsebox.jpg,2,1,0,0,1047
Stroop,3,25,B1,Odd,congruent_green.jpg,1,congruent_green,incongruent,congruent,left,switch,switch,~red_green_responsebox.jpg,~blue_orange_responsebox.jpg,1,2,0,0,1047
Stroop,3,27,B1,Odd,congruent_green.jpg,1,congruent_green,congruent,congruent,left,repeat,repeat,~red_green_responsebox.jpg,~blue_orange_responsebox.jpg,1,2,0,0,1906
Stroop,3,28,B1,Even,congruent_orange.jpg,1,congruent_orange,congruent,congruent,right,switch,repeat,~red_green_responsebox.jpg,~blue_orange_responsebox.jpg,2,1,0,0,1266
Stroop,3,29,B1,Odd,congruent_red.jpg,1,congruent_red,congruent,congruent,left,switch,repeat,~red_green_responsebox.jpg,~blue_orange_responsebox.jpg,1,2,0,0,797
Stroop,3,30,B1,Even,congruent_orange.jpg,1,congruent_orange,congruent,congruent,right,switch,repeat,~red_green_responsebox.jpg,~blue_orange_responsebox.jpg,2,1,0,0,781
Stroop,3,31,B1,Odd,incongruent_red_orange.jpg,2,incongruent_red_orange,congruent,incongruent,left,switch,switch,~red_green_responsebox.jpg,~blue_orange_responsebox.jpg,1,2,0,0,938
Stroop,3,32,B1,Even,congruent_blue.jpg,1,congruent_blue,incongruent,congruent,right,switch,switch,~red_green_responsebox.jpg,~blue_orange_responsebox.jpg,2,1,0,0,1015
Stroop,3,33,B1,Odd,congruent_blue.jpg,1,congruent_blue,congruent,congruent,right,repeat,repeat,~red_green_responsebox.jpg,~blue_orange_responsebox.jpg,2,1,0,0,1093
Stroop,3,34,B1,Even,incongruent_blue_green.jpg,999,incongruent_blue_green,congruent,incongruent,right,repeat,switch,~red_green_responsebox.jpg,~blue_orange_responsebox.jpg,1,1,1,0,1125
Stroop,3,35,B1,Odd,incongruent_green_red.jpg,2,incongruent_green_red,incongruent,incongruent,left,switch,repeat,~red_green_responsebox.jpg,~blue_orange_responsebox.jpg,1,2,0,1,1906
Stroop,3,36,B1,Even,congruent_orange.jpg,1,congruent_orange,incongruent,congruent,right,switch,switch,~red_green_responsebox.jpg,~blue_orange_responsebox.jpg,2,1,0,0,937
Stroop,3,37,B1,Odd,congruent_green.jpg,1,congruent_green,congruent,congruent,left,switch,repeat,~red_green_responsebox.jpg,~blue_orange_responsebox.jpg,1,2,0,0,1359
Stroop,3,38,B1,Even,congruent_green.jpg,1,congruent_green,congruent,congruent,left,repeat,repeat,~red_green_responsebox.jpg,~blue_orange_responsebox.jpg,1,2,0,0,907
Stroop,3,39,B1,Odd,congruent_green.jpg,1,congruent_green,congruent,congruent,left,repeat,repeat,~red_green_responsebox.jpg,~blue_orange_responsebox.jpg,1,2,0,0,1031
Stroop,3,40,B1,Even,incongruent_red_green.jpg,2,incongruent_red_green,congruent,incongruent,left,repeat,switch,~red_green_responsebox.jpg,~blue_orange_responsebox.jpg,1,2,0,0,1234
Stroop,3,41,B1,Odd,congruent_orange.jpg,1,congruent_orange,incongruent,congruent,right,switch,switch,~red_green_responsebox.jpg,~blue_orange_responsebox.jpg,2,1,0,0,875
Stroop,3,42,B1,Even,incongruent_blue_green.jpg,2,incongruent_blue_green,congruent,incongruent,right,repeat,switch,~red_green_responsebox.jpg,~blue_orange_responsebox.jpg,2,1,0,0,1032
Stroop,3,43,B1,Odd,congruent_red.jpg,1,congruent_red,incongruent,congruent,left,switch,switch,~red_green_responsebox.jpg,~blue_orange_responsebox.jpg,1,2,0,0,671
Stroop,3,44,B1,Even,incongruent_red_orange.jpg,2,incongruent_red_orange,congruent,incongruent,left,repeat,switch,~red_green_responsebox.jpg,~blue_orange_responsebox.jpg,1,2,0,0,1656
Stroop,3,45,B1,Odd,incongruent_red_blue.jpg,2,incongruent_red_blue,incongruent,incongruent,left,repeat,repeat,~red_green_responsebox.jpg,~blue_orange_responsebox.jpg,1,2,0,0,1078
Stroop,3,46,B1,Even,incongruent_blue_green.jpg,2,incongruent_blue_green,incongruent,incongruent,right,switch,repeat,~red_green_responsebox.jpg,~blue_orange_responsebox.jpg,2,1,0,0,875
Stroop,3,47,B1,Odd,congruent_blue.jpg,1,congruent_blue,incongruent,congruent,right,repeat,switch,~red_green_responsebox.jpg,~blue_orange_responsebox.jpg,2,1,0,0,812
Stroop,3,48,B1,Even,incongruent_orange_green.jpg,2,incongruent_orange_green,congruent,incongruent,right,repeat,switch,~red_green_responsebox.jpg,~blue_orange_responsebox.jpg,2,1,0,0,1375
Stroop,3,49,B1,Odd,incongruent_green_blue.jpg,2,incongruent_green_blue,incongruent,incongruent,left,switch,repeat,~red_green_responsebox.jpg,~blue_orange_responsebox.jpg,1,2,0,0,1000
Stroop,3,50,B1,Even,incongruent_red_blue.jpg,2,incongruent_red_blue,incongruent,incongruent,left,repeat,repeat,~red_green_responsebox.jpg,~blue_orange_responsebox.jpg,1,2,0,0,1156
Stroop,3,52,B2,Even,incongruent_red_orange.jpg,2,incongruent_red_orange,incongruent,incongruent,left,repeat,repeat,~red_green_responsebox.jpg,~blue_orange_responsebox.jpg,1,2,0,0,922
Stroop,3,53,B2,Odd,incongruent_green_red.jpg,2,incongruent_green_red,incongruent,incongruent,left,repeat,repeat,~red_green_responsebox.jpg,~blue_orange_responsebox.jpg,1,2,0,0,1406
Stroop,3,54,B2,Even,congruent_green.jpg,1,congruent_green,incongruent,congruent,left,repeat,switch,~red_green_responsebox.jpg,~blue_orange_responsebox.jpg,1,2,0,0,1344
Stroop,3,55,B2,Odd,congruent_orange.jpg,1,congruent_orange,congruent,congruent,right,switch,repeat,~red_green_responsebox.jpg,~blue_orange_responsebox.jpg,2,1,0,0,938
Stroop,3,56,B2,Even,congruent_red.jpg,1,congruent_red,congruent,congruent,left,switch,repeat,~red_green_responsebox.jpg,~blue_orange_responsebox.jpg,1,2,0,0,750
Stroop,3,57,B2,Odd,incongruent_green_orange.jpg,2,incongruent_green_orange,congruent,incongruent,left,repeat,switch,~red_green_responsebox.jpg,~blue_orange_responsebox.jpg,1,2,0,0,1375
Stroop,3,58,B2,Even,congruent_blue.jpg,1,congruent_blue,incongruent,congruent,right,switch,switch,~red_green_responsebox.jpg,~blue_orange_responsebox.jpg,2,1,0,0,1110
Stroop,3,59,B2,Odd,incongruent_blue_orange.jpg,999,incongruent_blue_orange,congruent,incongruent,right,repeat,switch,~red_green_responsebox.jpg,~blue_orange_responsebox.jpg,1,1,1,0,1265
Stroop,3,60,B2,Even,congruent_orange.jpg,1,congruent_orange,incongruent,congruent,right,repeat,switch,~red_green_responsebox.jpg,~blue_orange_responsebox.jpg,2,1,0,1,844
Stroop,3,61,B2,Odd,congruent_blue.jpg,1,congruent_blue,congruent,congruent,right,repeat,repeat,~red_green_responsebox.jpg,~blue_orange_responsebox.jpg,2,1,0,0,1015
Stroop,3,62,B2,Even,congruent_orange.jpg,1,congruent_orange,congruent,congruent,right,repeat,repeat,~red_green_responsebox.jpg,~blue_orange_responsebox.jpg,2,1,0,0,875
Stroop,3,63,B2,Odd,incongruent_blue_orange.jpg,2,incongruent_blue_orange,congruent,incongruent,right,repeat,switch,~red_green_responsebox.jpg,~blue_orange_responsebox.jpg,2,1,0,0,921
Stroop,3,64,B2,Even,incongruent_orange_blue.jpg,999,incongruent_orange_blue,incongruent,incongruent,right,repeat,repeat,~red_green_responsebox.jpg,~blue_orange_responsebox.jpg,1,1,1,0,1202
Stroop,3,65,B2,Odd,incongruent_orange_red.jpg,2,incongruent_orange_red,incongruent,incongruent,right,repeat,repeat,~red_green_responsebox.jpg,~blue_orange_responsebox.jpg,2,1,0,1,1094
Stroop,3,66,B2,Even,incongruent_green_orange.jpg,2,incongruent_green_orange,incongruent,incongruent,left,switch,repeat,~red_green_responsebox.jpg,~blue_orange_responsebox.jpg,1,2,0,0,1265
Stroop,3,67,B2,Odd,congruent_orange.jpg,1,congruent_orange,incongruent,congruent,right,switch,switch,~red_green_responsebox.jpg,~blue_orange_responsebox.jpg,2,1,0,0,797
Stroop,3,68,B2,Even,incongruent_orange_green.jpg,999,incongruent_orange_green,congruent,incongruent,right,repeat,switch,~red_green_responsebox.jpg,~blue_orange_responsebox.jpg,1,1,1,0,1078
Stroop,3,69,B2,Odd,congruent_orange.jpg,1,congruent_orange,incongruent,congruent,right,repeat,switch,~red_green_responsebox.jpg,~blue_orange_responsebox.jpg,2,1,0,1,969
Stroop,3,70,B2,Even,congruent_blue.jpg,1,congruent_blue,congruent,congruent,right,repeat,repeat,~red_green_responsebox.jpg,~blue_orange_responsebox.jpg,2,1,0,0,859
Stroop,3,71,B2,Odd,congruent_red.jpg,1,congruent_red,congruent,congruent,left,switch,repeat,~red_green_responsebox.jpg,~blue_orange_responsebox.jpg,1,2,0,0,1187
Stroop,3,72,B2,Even,incongruent_green_red.jpg,2,incongruent_green_red,congruent,incongruent,left,repeat,switch,~red_green_responsebox.jpg,~blue_orange_responsebox.jpg,1,2,0,0,1078
Stroop,3,73,B2,Odd,incongruent_red_green.jpg,2,incongruent_red_green,incongruent,incongruent,left,repeat,repeat,~red_green_responsebox.jpg,~blue_orange_responsebox.jpg,1,2,0,0,1062
Stroop,3,74,B2,Even,congruent_blue.jpg,1,congruent_blue,incongruent,congruent,right,switch,switch,~red_green_responsebox.jpg,~blue_orange_responsebox.jpg,2,1,0,0,797
Stroop,3,75,B2,Odd,congruent_blue.jpg,1,congruent_blue,congruent,congruent,right,repeat,repeat,~red_green_responsebox.jpg,~blue_orange_responsebox.jpg,2,1,0,0,672
Stroop,3,77,B2,Odd,congruent_red.jpg,1,congruent_red,congruent,congruent,left,switch,repeat,~red_green_responsebox.jpg,~blue_orange_responsebox.jpg,1,2,0,0,687
Stroop,3,78,B2,Even,congruent_red.jpg,1,congruent_red,congruent,congruent,left,repeat,repeat,~red_green_responsebox.jpg,~blue_orange_responsebox.jpg,1,2,0,0,735
Stroop,3,79,B2,Odd,incongruent_orange_red.jpg,2,incongruent_orange_red,congruent,incongruent,right,switch,switch,~red_green_responsebox.jpg,~blue_orange_responsebox.jpg,2,1,0,0,1203
Stroop,3,80,B2,Even,congruent_blue.jpg,1,congruent_blue,incongruent,congruent,right,repeat,switch,~red_green_responsebox.jpg,~blue_orange_responsebox.jpg,2,1,0,0,734
Stroop,3,81,B2,Odd,congruent_green.jpg,1,congruent_green,congruent,congruent,left,switch,repeat,~red_green_responsebox.jpg,~blue_orange_responsebox.jpg,1,2,0,0,1328
Stroop,3,82,B2,Even,incongruent_green_orange.jpg,2,incongruent_green_orange,congruent,incongruent,left,repeat,switch,~red_green_responsebox.jpg,~blue_orange_responsebox.jpg,1,2,0,0,2015
Stroop,3,83,B2,Odd,incongruent_blue_orange.jpg,2,incongruent_blue_orange,incongruent,incongruent,right,switch,repeat,~red_green_responsebox.jpg,~blue_orange_responsebox.jpg,2,1,0,0,968
Stroop,3,84,B2,Even,incongruent_blue_red.jpg,2,incongruent_blue_red,incongruent,incongruent,right,repeat,repeat,~red_green_responsebox.jpg,~blue_orange_responsebox.jpg,2,1,0,0,1625
Stroop,3,85,B2,Odd,incongruent_green_orange.jpg,2,incongruent_green_orange,incongruent,incongruent,left,switch,repeat,~red_green_responsebox.jpg,~blue_orange_responsebox.jpg,1,2,0,0,1281
Stroop,3,86,B2,Even,incongruent_orange_red.jpg,2,incongruent_orange_red,incongruent,incongruent,right,switch,repeat,~red_green_responsebox.jpg,~blue_orange_responsebox.jpg,2,1,0,0,844
Stroop,3,87,B2,Odd,incongruent_red_green.jpg,2,incongruent_red_green,incongruent,incongruent,left,switch,repeat,~red_green_responsebox.jpg,~blue_orange_responsebox.jpg,1,2,0,0,859
Stroop,3,88,B2,Even,congruent_green.jpg,1,congruent_green,incongruent,congruent,left,repeat,switch,~red_green_responsebox.jpg,~blue_orange_responsebox.jpg,1,2,0,0,938
Stroop,3,89,B2,Odd,incongruent_green_red.jpg,2,incongruent_green_red,congruent,incongruent,left,repeat,switch,~red_green_responsebox.jpg,~blue_orange_responsebox.jpg,1,2,0,0,860
Stroop,3,90,B2,Even,congruent_red.jpg,1,congruent_red,incongruent,congruent,left,repeat,switch,~red_green_responsebox.jpg,~blue_orange_responsebox.jpg,1,2,0,0,906
Stroop,3,91,B2,Odd,congruent_blue.jpg,1,congruent_blue,congruent,congruent,right,switch,repeat,~red_green_responsebox.jpg,~blue_orange_responsebox.jpg,2,1,0,0,781
Stroop,3,92,B2,Even,congruent_green.jpg,1,congruent_green,congruent,congruent,left,switch,repeat,~red_green_responsebox.jpg,~blue_orange_responsebox.jpg,1,2,0,0,999
Stroop,3,93,B2,Odd,congruent_red.jpg,1,congruent_red,congruent,congruent,left,repeat,repeat,~red_green_responsebox.jpg,~blue_orange_responsebox.jpg,1,2,0,0,782
Stroop,3,94,B2,Even,incongruent_blue_red.jpg,2,incongruent_blue_red,congruent,incongruent,right,switch,switch,~red_green_responsebox.jpg,~blue_orange_responsebox.jpg,2,1,0,0,1047
Stroop,3,95,B2,Odd,incongruent_blue_red.jpg,2,incongruent_blue_red,incongruent,incongruent,right,repeat,repeat,~red_green_responsebox.jpg,~blue_orange_responsebox.jpg,2,1,0,0,1406
Stroop,3,96,B2,Even,congruent_red.jpg,1,congruent_red,incongruent,congruent,left,switch,switch,~red_green_responsebox.jpg,~blue_orange_responsebox.jpg,1,2,0,0,844
Stroop,3,97,B2,Odd,congruent_green.jpg,1,congruent_green,congruent,congruent,left,repeat,repeat,~red_green_responsebox.jpg,~blue_orange_responsebox.jpg,1,2,0,0,984
Stroop,3,98,B2,Even,incongruent_red_green.jpg,2,incongruent_red_green,congruent,incongruent,left,repeat,switch,~red_green_responsebox.jpg,~blue_orange_responsebox.jpg,1,2,0,0,1171
Stroop,3,99,B2,Odd,congruent_orange.jpg,1,congruent_orange,incongruent,congruent,right,switch,switch,~red_green_responsebox.jpg,~blue_orange_responsebox.jpg,2,1,0,0,781
Stroop,3,100,B2,Even,incongruent_green_blue.jpg,2,incongruent_green_blue,congruent,incongruent,left,switch,switch,~red_green_responsebox.jpg,~blue_orange_responsebox.jpg,1,2,0,0,1094
Flanker,4,2,B1,Even,incongruent_left.jpg,999,incongruent_left,incongruent,incongruent,left,repeat,repeat,~left_response_box.jpg,~right_response_box.jpg,2,2,1,0,2031
Flanker,4,3,B1,Odd,incongruent_left.jpg,2,incongruent_left,incongruent,incongruent,left,repeat,repeat,~left_response_box.jpg,~right_response_box.jpg,1,2,0,1,4389
Flanker,4,4,B1,Even,incongruent_right.jpg,2,incongruent_right,incongruent,incongruent,right,switch,repeat,~left_response_box.jpg,~right_response_box.jpg,2,1,0,0,1281
Flanker,4,5,B1,Odd,congruent_left.jpg,1,congruent_left,incongruent,congruent,left,switch,switch,~left_response_box.jpg,~right_response_box.jpg,1,2,0,0,1281
Flanker,4,6,B1,Even,congruent_right.jpg,1,congruent_right,congruent,congruent,right,switch,repeat,~left_response_box.jpg,~right_response_box.jpg,2,1,0,0,937
Flanker,4,7,B1,Odd,incongruent_left.jpg,2,incongruent_left,congruent,incongruent,left,switch,switch,~left_response_box.jpg,~right_response_box.jpg,1,2,0,0,1187
Flanker,4,8,B1,Even,incongruent_left.jpg,2,incongruent_left,incongruent,incongruent,left,repeat,repeat,~left_response_box.jpg,~right_response_box.jpg,1,2,0,0,1547
Flanker,4,9,B1,Odd,congruent_left.jpg,1,congruent_left,incongruent,congruent,left,repeat,switch,~left_response_box.jpg,~right_response_box.jpg,1,2,0,0,1046
Flanker,4,10,B1,Even,congruent_left.jpg,1,congruent_left,congruent,congruent,left,repeat,repeat,~left_response_box.jpg,~right_response_box.jpg,1,2,0,0,906
Flanker,4,11,B1,Odd,congruent_right.jpg,1,congruent_right,congruent,congruent,right,switch,repeat,~left_response_box.jpg,~right_response_box.jpg,2,1,0,0,843
Flanker,4,12,B1,Even,congruent_left.jpg,1,congruent_left,congruent,congruent,left,switch,repeat,~left_response_box.jpg,~right_response_box.jpg,1,2,0,0,734
Flanker,4,13,B1,Odd,congruent_left.jpg,1,congruent_left,congruent,congruent,left,repeat,repeat,~left_response_box.jpg,~right_response_box.jpg,1,2,0,0,828
Flanker,4,14,B1,Even,congruent_left.jpg,1,congruent_left,congruent,congruent,left,repeat,repeat,~left_response_box.jpg,~right_response_box.jpg,1,2,0,0,953
Flanker,4,15,B1,Odd,incongruent_left.jpg,2,incongruent_left,congruent,incongruent,left,repeat,switch,~left_response_box.jpg,~right_response_box.jpg,1,2,0,0,968
Flanker,4,16,B1,Even,congruent_left.jpg,1,congruent_left,incongruent,congruent,left,repeat,switch,~left_response_box.jpg,~right_response_box.jpg,1,2,0,0,719
Flanker,4,17,B1,Odd,incongruent_right.jpg,2,incongruent_right,congruent,incongruent,right,switch,switch,~left_response_box.jpg,~right_response_box.jpg,2,1,0,0,1156
Flanker,4,18,B1,Even,congruent_left.jpg,1,congruent_left,incongruent,congruent,left,switch,switch,~left_response_box.jpg,~right_response_box.jpg,1,2,0,0,641
